Model,MSO2024
Firmware Version,1.52

Point Format,Y,
Horizontal Units,S,
Horizontal Scale,4,
Sample Interval,0.00768049,
Filter Frequency,2e+08,
Record Length,3923,
Gating,0.0% to 100.0%,
Probe Attenuation,1,
Vertical Units,V,
Vertical Offset,0,
Vertical Scale,0.002,
Label,,
TIME,CH1,CH1 Peak Detect
-2.0000e+01,-0.00252,0.00268
-1.9992e+01,-0.00204,-0.00788
-1.9985e+01,-0.00228,0.00268
-1.9977e+01,-0.0018,-0.00652
-1.9969e+01,-0.00212,0.001
-1.9962e+01,-0.00196,-0.00572
-1.9954e+01,-0.00212,0.00268
-1.9946e+01,-0.00212,-0.00772
-1.9939e+01,-0.00268,0.00052
-1.9931e+01,-0.00276,-0.00524
-1.9923e+01,-0.00284,0.0014
-1.9916e+01,-0.00228,-0.0062
-1.9908e+01,-0.00284,-0.00036
-1.9900e+01,-0.00228,-0.00428
-1.9892e+01,-0.00204,0.00268
-1.9885e+01,-0.00228,-0.00972
-1.9877e+01,-0.00212,0.00268
-1.9869e+01,-0.00228,-0.00716
-1.9862e+01,-0.00204,0.00268
-1.9854e+01,-0.00204,-0.00724
-1.9846e+01,-0.00204,0.00268
-1.9839e+01,-0.00164,-0.00724
-1.9831e+01,-0.00244,0.001
-1.9823e+01,-0.00212,-0.00508
-1.9816e+01,-0.0018,0.0018
-1.9808e+01,-0.00204,-0.00636
-1.9800e+01,-0.00228,0.00268
-1.9793e+01,-0.00188,-0.00692
-1.9785e+01,-0.00188,0.00212
-1.9777e+01,-0.0026,-0.00668
-1.9770e+01,-0.00236,0.00116
-1.9762e+01,-0.00252,-0.00564
-1.9754e+01,-0.00228,0.00084
-1.9747e+01,-0.00204,-0.00604
-1.9739e+01,-0.00228,0.0006
-1.9731e+01,-0.00252,-0.00596
-1.9724e+01,-0.00292,0.00164
-1.9716e+01,-0.00292,-0.00844
-1.9708e+01,-0.00316,0.00244
-1.9700e+01,-0.00244,-0.0078
-1.9693e+01,-0.00348,0.00228
-1.9685e+01,-0.00348,-0.00868
-1.9677e+01,-0.00356,0.00172
-1.9670e+01,-0.0034,-0.00804
-1.9662e+01,-0.00348,0.00212
-1.9654e+01,-0.0026,-0.00892
-1.9647e+01,-0.00348,0.00028
-1.9639e+01,-0.00364,-0.00724
-1.9631e+01,-0.00348,0.00116
-1.9624e+01,-0.00324,-0.00732
-1.9616e+01,-0.00348,0.00148
-1.9608e+01,-0.00324,-0.00796
-1.9601e+01,-0.00292,0.0022
-1.9593e+01,-0.00276,-0.00708
-1.9585e+01,-0.0026,0.00268
-1.9578e+01,-0.00308,-0.00956
-1.9570e+01,-0.00332,0.00268
-1.9562e+01,-0.00268,-0.00972
-1.9555e+01,-0.00284,0.00212
-1.9547e+01,-0.00292,-0.00692
-1.9539e+01,-0.0026,0.00044
-1.9531e+01,-0.00316,-0.0062
-1.9524e+01,-0.00284,0.00052
-1.9516e+01,-0.00292,-0.0062
-1.9508e+01,-0.00324,0.00012
-1.9501e+01,-0.00308,-0.00644
-1.9493e+01,-0.00284,0.00236
-1.9485e+01,-0.00292,-0.0082
-1.9478e+01,-0.00252,0.00068
-1.9470e+01,-0.00244,-0.00684
-1.9462e+01,-0.003,0.00164
-1.9455e+01,-0.00308,-0.00772
-1.9447e+01,-0.00292,0.00052
-1.9439e+01,-0.00324,-0.00724
-1.9432e+01,-0.003,-0.0002
-1.9424e+01,-0.00308,-0.0062
-1.9416e+01,-0.00332,0.00092
-1.9409e+01,-0.00324,-0.00716
-1.9401e+01,-0.00308,0.00028
-1.9393e+01,-0.0034,-0.00636
-1.9386e+01,-0.00308,-4e-05
-1.9378e+01,-0.003,-0.00628
-1.9370e+01,-0.003,0.00084
-1.9363e+01,-0.00276,-0.00572
-1.9355e+01,-0.00276,0.00204
-1.9347e+01,-0.00252,-0.00636
-1.9339e+01,-0.00244,0.00124
-1.9332e+01,-0.00276,-0.00564
-1.9324e+01,-0.00188,0.00172
-1.9316e+01,-0.00228,-0.00564
-1.9309e+01,-0.00236,0.00044
-1.9301e+01,-0.00212,-0.00468
-1.9293e+01,-0.00204,0.00268
-1.9286e+01,-0.00196,-0.0078
-1.9278e+01,-0.00228,0.0026
-1.9270e+01,-0.00196,-0.0082
-1.9263e+01,-0.00204,0.0014
-1.9255e+01,-0.00252,-0.00684
-1.9247e+01,-0.00252,0.00164
-1.9240e+01,-0.00268,-0.00644
-1.9232e+01,-0.00244,0.00228
-1.9224e+01,-0.00284,-0.00804
-1.9217e+01,-0.00276,0.00236
-1.9209e+01,-0.00284,-0.00732
-1.9201e+01,-0.00244,0.00268
-1.9194e+01,-0.00308,-0.00788
-1.9186e+01,-0.00268,0.00244
-1.9178e+01,-0.00252,-0.00748
-1.9171e+01,-0.00212,0.00268
-1.9163e+01,-0.0026,-0.00828
-1.9155e+01,-0.00228,0.00204
-1.9147e+01,-0.00252,-0.00796
-1.9140e+01,-0.00244,0.0022
-1.9132e+01,-0.00236,-0.00596
-1.9124e+01,-0.00228,-0.00028
-1.9117e+01,-0.0018,-0.00356
-1.9109e+01,-0.0022,0.00268
-1.9101e+01,-0.00204,-0.00828
-1.9094e+01,-0.00204,0.00268
-1.9086e+01,-0.00212,-0.0074
-1.9078e+01,-0.0026,0.00068
-1.9071e+01,-0.00236,-0.00516
-1.9063e+01,-0.00308,0.00196
-1.9055e+01,-0.00292,-0.0066
-1.9048e+01,-0.003,0.00172
-1.9040e+01,-0.00276,-0.007
-1.9032e+01,-0.0022,0.00268
-1.9025e+01,-0.0022,-0.0082
-1.9017e+01,-0.00252,0.0022
-1.9009e+01,-0.00236,-0.00676
-1.9002e+01,-0.00228,0.0014
-1.8994e+01,-0.00228,-0.0066
-1.8986e+01,-0.00244,0.00268
-1.8978e+01,-0.00252,-0.00812
-1.8971e+01,-0.00268,0.00108
-1.8963e+01,-0.0022,-0.00636
-1.8955e+01,-0.00236,0.00268
-1.8948e+01,-0.00236,-0.00884
-1.8940e+01,-0.00268,0.00268
-1.8932e+01,-0.00268,-0.00764
-1.8925e+01,-0.00236,-0.00124
-1.8917e+01,-0.00236,-0.00356
-1.8909e+01,-0.00212,0.00212
-1.8902e+01,-0.00276,-0.00716
-1.8894e+01,-0.00308,0.00124
-1.8886e+01,-0.00308,-0.00668
-1.8879e+01,-0.00324,-0.00028
-1.8871e+01,-0.00332,-0.00684
-1.8863e+01,-0.00332,0.00148
-1.8856e+01,-0.0034,-0.00852
-1.8848e+01,-0.003,-0.00036
-1.8840e+01,-0.00332,-0.00596
-1.8833e+01,-0.003,0.0026
-1.8825e+01,-0.00276,-0.00788
-1.8817e+01,-0.00324,0.00148
-1.8810e+01,-0.003,-0.0074
-1.8802e+01,-0.00348,0.001
-1.8794e+01,-0.00332,-0.00708
-1.8786e+01,-0.00284,0.00036
-1.8779e+01,-0.00308,-0.0054
-1.8771e+01,-0.0034,0.00036
-1.8763e+01,-0.00332,-0.00668
-1.8756e+01,-0.00324,0.00188
-1.8748e+01,-0.00332,-0.00788
-1.8740e+01,-0.00332,0.00084
-1.8733e+01,-0.00332,-0.0074
-1.8725e+01,-0.0034,-0.00196
-1.8717e+01,-0.00308,-0.0042
-1.8710e+01,-0.00324,-0.00028
-1.8702e+01,-0.00268,-0.00548
-1.8694e+01,-0.00276,0.0006
-1.8687e+01,-0.00284,-0.00644
-1.8679e+01,-0.003,0.00244
-1.8671e+01,-0.00292,-0.00812
-1.8664e+01,-0.00308,0.00212
-1.8656e+01,-0.00268,-0.00764
-1.8648e+01,-0.00268,0.00068
-1.8641e+01,-0.00236,-0.00572
-1.8633e+01,-0.00276,0.0022
-1.8625e+01,-0.0026,-0.0074
-1.8618e+01,-0.0026,0.00132
-1.8610e+01,-0.00268,-0.00684
-1.8602e+01,-0.00276,0.0014
-1.8594e+01,-0.0026,-0.00556
-1.8587e+01,-0.00292,0.00092
-1.8579e+01,-0.00236,-0.0054
-1.8571e+01,-0.00292,0.00252
-1.8564e+01,-0.00236,-0.00772
-1.8556e+01,-0.00228,0.00228
-1.8548e+01,-0.0026,-0.00716
-1.8541e+01,-0.00236,0.00052
-1.8533e+01,-0.00236,-0.00556
-1.8525e+01,-0.00212,0.00244
-1.8518e+01,-0.00268,-0.00748
-1.8510e+01,-0.00252,0.00068
-1.8502e+01,-0.00292,-0.00604
-1.8495e+01,-0.00244,0.00268
-1.8487e+01,-0.00236,-0.00748
-1.8479e+01,-0.0026,0.00084
-1.8472e+01,-0.00276,-0.0058
-1.8464e+01,-0.003,0.00044
-1.8456e+01,-0.00292,-0.00628
-1.8449e+01,-0.003,0.00068
-1.8441e+01,-0.003,-0.00636
-1.8433e+01,-0.00244,0.00172
-1.8425e+01,-0.00284,-0.00788
-1.8418e+01,-0.00308,0.00188
-1.8410e+01,-0.003,-0.0074
-1.8402e+01,-0.00292,0.0018
-1.8395e+01,-0.00284,-0.00732
-1.8387e+01,-0.00308,0.00172
-1.8379e+01,-0.00348,-0.00676
-1.8372e+01,-0.00284,0.00268
-1.8364e+01,-0.00316,-0.00924
-1.8356e+01,-0.00308,0.001
-1.8349e+01,-0.0026,-0.00748
-1.8341e+01,-0.00284,0.00012
-1.8333e+01,-0.00276,-0.00572
-1.8326e+01,-0.00324,0.00236
-1.8318e+01,-0.00308,-0.00844
-1.8310e+01,-0.00252,0.00124
-1.8303e+01,-0.00244,-0.00676
-1.8295e+01,-0.00276,0.00268
-1.8287e+01,-0.00268,-0.00892
-1.8280e+01,-0.00244,0.0026
-1.8272e+01,-0.00268,-0.00756
-1.8264e+01,-0.0022,-0.00044
-1.8257e+01,-0.00268,-0.00476
-1.8249e+01,-0.00212,0.00188
-1.8241e+01,-0.00268,-0.00692
-1.8233e+01,-0.00228,-4e-05
-1.8226e+01,-0.00236,-0.005
-1.8218e+01,-0.00292,0.00268
-1.8210e+01,-0.00244,-0.0078
-1.8203e+01,-0.0026,0.00252
-1.8195e+01,-0.00252,-0.00756
-1.8187e+01,-0.00212,0.00244
-1.8180e+01,-0.00244,-0.00724
-1.8172e+01,-0.00236,4e-05
-1.8164e+01,-0.00196,-0.00492
-1.8157e+01,-0.00244,0.0026
-1.8149e+01,-0.0022,-0.00652
-1.8141e+01,-0.00188,0.001
-1.8134e+01,-0.0022,-0.0054
-1.8126e+01,-0.00196,0.0018
-1.8118e+01,-0.00212,-0.00588
-1.8111e+01,-0.00228,0.00268
-1.8103e+01,-0.0022,-0.00684
-1.8095e+01,-0.00228,0.00268
-1.8088e+01,-0.0022,-0.00724
-1.8080e+01,-0.00228,0.00116
-1.8072e+01,-0.00204,-0.00524
-1.8065e+01,-0.0018,0.00268
-1.8057e+01,-0.00244,-0.00764
-1.8049e+01,-0.00228,0.0022
-1.8041e+01,-0.00228,-0.00732
-1.8034e+01,-0.00252,0.00212
-1.8026e+01,-0.00236,-0.0066
-1.8018e+01,-0.00196,0.0022
-1.8011e+01,-0.00236,-0.00756
-1.8003e+01,-0.00236,0.00268
-1.7995e+01,-0.00228,-0.00716
-1.7988e+01,-0.00244,0.00188
-1.7980e+01,-0.00236,-0.00628
-1.7972e+01,-0.00204,0.00268
-1.7965e+01,-0.00268,-0.00836
-1.7957e+01,-0.00196,0.00268
-1.7949e+01,-0.00244,-0.00828
-1.7942e+01,-0.00292,0.00132
-1.7934e+01,-0.00268,-0.00564
-1.7926e+01,-0.00292,0.0026
-1.7919e+01,-0.00268,-0.00756
-1.7911e+01,-0.00308,0.00116
-1.7903e+01,-0.00308,-0.00684
-1.7896e+01,-0.00316,4e-05
-1.7888e+01,-0.00308,-0.0058
-1.7880e+01,-0.00308,0.00084
-1.7873e+01,-0.00228,-0.00572
-1.7865e+01,-0.0026,0.00268
-1.7857e+01,-0.0022,-0.0086
-1.7849e+01,-0.00252,0.0014
-1.7842e+01,-0.0026,-0.00604
-1.7834e+01,-0.00228,0.00268
-1.7826e+01,-0.00228,-0.00668
-1.7819e+01,-0.00212,0.001
-1.7811e+01,-0.00252,-0.00564
-1.7803e+01,-0.0022,0.00268
-1.7796e+01,-0.00212,-0.00748
-1.7788e+01,-0.00196,0.00204
-1.7780e+01,-0.00124,-0.00556
-1.7773e+01,-0.00228,0.00164
-1.7765e+01,-0.00212,-0.00644
-1.7757e+01,-0.00196,-0.00092
-1.7750e+01,-0.00196,-0.0038
-1.7742e+01,-0.00212,0.00148
-1.7734e+01,-0.00228,-0.00572
-1.7727e+01,-0.00268,0.00212
-1.7719e+01,-0.00188,-0.00636
-1.7711e+01,-0.00244,0.00268
-1.7704e+01,-0.00244,-0.007
-1.7696e+01,-0.00244,0.00268
-1.7688e+01,-0.0018,-0.00668
-1.7680e+01,-0.00212,0.0022
-1.7673e+01,-0.00228,-0.00668
-1.7665e+01,-0.0022,0.00236
-1.7657e+01,-0.00132,-0.00604
-1.7650e+01,-0.00204,0.0014
-1.7642e+01,-0.00268,-0.00612
-1.7634e+01,-0.00252,0.00268
-1.7627e+01,-0.00292,-0.00724
-1.7619e+01,-0.00212,0.00084
-1.7611e+01,-0.00244,-0.005
-1.7604e+01,-0.00228,0.00172
-1.7596e+01,-0.00244,-0.0066
-1.7588e+01,-0.00236,0.00268
-1.7581e+01,-0.0022,-0.00716
-1.7573e+01,-0.00268,0.00268
-1.7565e+01,-0.00252,-0.00772
-1.7558e+01,-0.00268,0.00012
-1.7550e+01,-0.00244,-0.00492
-1.7542e+01,-0.00188,0.00148
-1.7535e+01,-0.00244,-0.00668
-1.7527e+01,-0.00276,0.00212
-1.7519e+01,-0.00284,-0.00732
-1.7512e+01,-0.0022,-0.00012
-1.7504e+01,-0.00244,-0.00516
-1.7496e+01,-0.00276,0.0006
-1.7488e+01,-0.00268,-0.00556
-1.7481e+01,-0.00228,0.00156
-1.7473e+01,-0.0022,-0.00676
-1.7465e+01,-0.00236,0.00268
-1.7458e+01,-0.00228,-0.0086
-1.7450e+01,-0.00276,0.0026
-1.7442e+01,-0.0026,-0.00724
-1.7435e+01,-0.00284,0.00068
-1.7427e+01,-0.00276,-0.00588
-1.7419e+01,-0.00252,0.00204
-1.7412e+01,-0.00284,-0.00748
-1.7404e+01,-0.0026,0.00156
-1.7396e+01,-0.00236,-0.00636
-1.7389e+01,-0.00284,0.00108
-1.7381e+01,-0.00268,-0.00684
-1.7373e+01,-0.00276,-0.00036
-1.7366e+01,-0.00252,-0.00572
-1.7358e+01,-0.00268,0.00028
-1.7350e+01,-0.00292,-0.0058
-1.7343e+01,-0.00324,0.00012
-1.7335e+01,-0.00244,-0.00644
-1.7327e+01,-0.00276,0.00204
-1.7320e+01,-0.0026,-0.0082
-1.7312e+01,-0.00228,0.00092
-1.7304e+01,-0.00268,-0.00692
-1.7296e+01,-0.0026,0.00124
-1.7289e+01,-0.00196,-0.00524
-1.7281e+01,-0.00228,0.0026
-1.7273e+01,-0.0022,-0.00764
-1.7266e+01,-0.00204,0.0014
-1.7258e+01,-0.00212,-0.00572
-1.7250e+01,-0.00236,0.00116
-1.7243e+01,-0.0022,-0.00588
-1.7235e+01,-0.00212,0.0022
-1.7227e+01,-0.00236,-0.00748
-1.7220e+01,-0.00228,0.00196
-1.7212e+01,-0.00308,-0.00796
-1.7204e+01,-0.00252,0.00236
-1.7197e+01,-0.00284,-0.0074
-1.7189e+01,-0.00316,0.00084
-1.7181e+01,-0.00292,-0.00564
-1.7174e+01,-0.00268,-0.0014
-1.7166e+01,-0.00268,-0.00372
-1.7158e+01,-0.00244,0.0022
-1.7151e+01,-0.00244,-0.00748
-1.7143e+01,-0.00228,0.00268
-1.7135e+01,-0.00244,-0.0062
-1.7127e+01,-0.00244,0.0022
-1.7120e+01,-0.00188,-0.00628
-1.7112e+01,-0.0026,0.00244
-1.7104e+01,-0.00228,-0.00716
-1.7097e+01,-0.00228,0.00156
-1.7089e+01,-0.00188,-0.00524
-1.7081e+01,-0.00204,0.00044
-1.7074e+01,-0.00164,-0.00468
-1.7066e+01,-0.00212,0.00268
-1.7058e+01,-0.00132,-0.0062
-1.7051e+01,-0.00116,0.00132
-1.7043e+01,-0.00156,-0.00492
-1.7035e+01,-0.00132,0.00268
-1.7028e+01,-0.00156,-0.0058
-1.7020e+01,-0.00204,0.00268
-1.7012e+01,-0.00196,-0.00684
-1.7005e+01,-0.00188,0.00268
-1.6997e+01,-0.0022,-0.00724
-1.6989e+01,-0.00236,0.00116
-1.6982e+01,-0.00212,-0.00548
-1.6974e+01,-0.0022,-0.001
-1.6966e+01,-0.00188,-0.00324
-1.6959e+01,-0.00212,0.0018
-1.6951e+01,-0.00228,-0.00684
-1.6943e+01,-0.00268,0.00268
-1.6935e+01,-0.00268,-0.00788
-1.6928e+01,-0.00212,0.00268
-1.6920e+01,-0.00204,-0.00884
-1.6912e+01,-0.00196,0.00268
-1.6905e+01,-0.00172,-0.00692
-1.6897e+01,-0.0018,0.00196
-1.6889e+01,-0.0014,-0.00572
-1.6882e+01,-0.00156,0.00268
-1.6874e+01,-0.00156,-0.0062
-1.6866e+01,-0.00124,0.00268
-1.6859e+01,-0.00172,-0.00612
-1.6851e+01,-0.00172,0.00204
-1.6843e+01,-0.0018,-0.00476
-1.6836e+01,-0.00132,0.00268
-1.6828e+01,-0.00148,-0.00604
-1.6820e+01,-0.00148,0.00252
-1.6813e+01,-0.00156,-0.00588
-1.6805e+01,-0.00188,0.0014
-1.6797e+01,-0.00212,-0.005
-1.6790e+01,-0.00252,0.00244
-1.6782e+01,-0.00188,-0.00676
-1.6774e+01,-0.00276,0.00052
-1.6767e+01,-0.00204,-0.00508
-1.6759e+01,-0.00156,0.00228
-1.6751e+01,-0.00132,-0.0062
-1.6743e+01,-0.00212,0.00196
-1.6736e+01,-0.00204,-0.00628
-1.6728e+01,-0.00196,0.00228
-1.6720e+01,-0.00148,-0.00628
-1.6713e+01,-0.0018,0.00188
-1.6705e+01,-0.00188,-0.00508
-1.6697e+01,-0.00212,0.00188
-1.6690e+01,-0.00196,-0.0054
-1.6682e+01,-0.0018,0.00268
-1.6674e+01,-0.00196,-0.0078
-1.6667e+01,-0.00196,0.00076
-1.6659e+01,-0.00196,-0.00468
-1.6651e+01,-0.00212,0.00268
-1.6644e+01,-0.00188,-0.00692
-1.6636e+01,-0.00156,0.0022
-1.6628e+01,-0.00212,-0.0058
-1.6621e+01,-0.00172,0.00268
-1.6613e+01,-0.00236,-0.00756
-1.6605e+01,-0.00244,0.00268
-1.6598e+01,-0.00244,-0.00828
-1.6590e+01,-0.00196,-0.0002
-1.6582e+01,-0.0018,-0.00412
-1.6575e+01,-0.00196,0.00132
-1.6567e+01,-0.00228,-0.00556
-1.6559e+01,-0.00188,0.00076
-1.6551e+01,-0.0018,-0.00492
-1.6544e+01,-0.00196,0.00196
-1.6536e+01,-0.00196,-0.00548
-1.6528e+01,-0.00196,0.00252
-1.6521e+01,-0.00236,-0.00764
-1.6513e+01,-0.00276,0.00156
-1.6505e+01,-0.00204,-0.00668
-1.6498e+01,-0.00228,0.00268
-1.6490e+01,-0.00236,-0.00772
-1.6482e+01,-0.00212,0.00092
-1.6475e+01,-0.00244,-0.00556
-1.6467e+01,-0.0026,0.00084
-1.6459e+01,-0.00204,-0.00532
-1.6452e+01,-0.00236,0.00252
-1.6444e+01,-0.00228,-0.00788
-1.6436e+01,-0.00244,0.00268
-1.6429e+01,-0.00276,-0.00876
-1.6421e+01,-0.00268,0.0026
-1.6413e+01,-0.00252,-0.00724
-1.6406e+01,-0.00292,0.001
-1.6398e+01,-0.00284,-0.00596
-1.6390e+01,-0.00268,0.00036
-1.6382e+01,-0.0026,-0.00524
-1.6375e+01,-0.00276,0.00268
-1.6367e+01,-0.00268,-0.0086
-1.6359e+01,-0.00268,0.00116
-1.6352e+01,-0.00252,-0.00652
-1.6344e+01,-0.00316,0.00268
-1.6336e+01,-0.00268,-0.00852
-1.6329e+01,-0.00284,0.00252
-1.6321e+01,-0.00284,-0.00756
-1.6313e+01,-0.00316,0.00172
-1.6306e+01,-0.00316,-0.00732
-1.6298e+01,-0.00292,0.00028
-1.6290e+01,-0.00252,-0.00676
-1.6283e+01,-0.00284,0.0006
-1.6275e+01,-0.00228,-0.00588
-1.6267e+01,-0.00228,0.00244
-1.6260e+01,-0.00268,-0.007
-1.6252e+01,-0.00228,0.00268
-1.6244e+01,-0.00228,-0.00844
-1.6237e+01,-0.003,0.00044
-1.6229e+01,-0.0026,-0.00492
-1.6221e+01,-0.00268,0.00268
-1.6214e+01,-0.00244,-0.00852
-1.6206e+01,-0.00284,0.0022
-1.6198e+01,-0.00292,-0.00772
-1.6190e+01,-0.00324,0.00052
-1.6183e+01,-0.00252,-0.00596
-1.6175e+01,-0.00268,0.00252
-1.6167e+01,-0.00284,-0.00788
-1.6160e+01,-0.0026,-0.0002
-1.6152e+01,-0.00348,-0.00588
-1.6144e+01,-0.00308,0.00148
-1.6137e+01,-0.003,-0.00676
-1.6129e+01,-0.00292,0.00052
-1.6121e+01,-0.003,-0.00676
-1.6114e+01,-0.00292,0.00268
-1.6106e+01,-0.00292,-0.00996
-1.6098e+01,-0.003,0.00028
-1.6091e+01,-0.00252,-0.00612
-1.6083e+01,-0.00276,0.00156
-1.6075e+01,-0.00348,-0.00756
-1.6068e+01,-0.00324,0.001
-1.6060e+01,-0.00268,-0.007
-1.6052e+01,-0.00292,0.0022
-1.6045e+01,-0.003,-0.00764
-1.6037e+01,-0.00228,0.00212
-1.6029e+01,-0.00284,-0.00676
-1.6022e+01,-0.00308,0.00212
-1.6014e+01,-0.00268,-0.00652
-1.6006e+01,-0.00276,0.00228
-1.5998e+01,-0.00244,-0.00708
-1.5991e+01,-0.0026,-0.00052
-1.5983e+01,-0.00228,-0.00468
-1.5975e+01,-0.0026,0.00132
-1.5968e+01,-0.00276,-0.00628
-1.5960e+01,-0.00292,0.00116
-1.5952e+01,-0.00316,-0.00644
-1.5945e+01,-0.00236,0.00244
-1.5937e+01,-0.00268,-0.0078
-1.5929e+01,-0.00284,0.00196
-1.5922e+01,-0.0026,-0.00684
-1.5914e+01,-0.00284,0.00164
-1.5906e+01,-0.00292,-0.00692
-1.5899e+01,-0.00276,0.00252
-1.5891e+01,-0.003,-0.0078
-1.5883e+01,-0.00292,0.00124
-1.5876e+01,-0.00316,-0.00636
-1.5868e+01,-0.00252,0.00268
-1.5860e+01,-0.00236,-0.00772
-1.5853e+01,-0.00236,0.00068
-1.5845e+01,-0.00284,-0.00572
-1.5837e+01,-0.00284,0.0018
-1.5829e+01,-0.00236,-0.00684
-1.5822e+01,-0.003,0.00108
-1.5814e+01,-0.00268,-0.0066
-1.5806e+01,-0.00268,0.0006
-1.5799e+01,-0.00284,-0.00676
-1.5791e+01,-0.00268,0.00132
-1.5783e+01,-0.00276,-0.00716
-1.5776e+01,-0.00316,0.00156
-1.5768e+01,-0.00284,-0.00756
-1.5760e+01,-0.00252,0.00164
-1.5753e+01,-0.00228,-0.0066
-1.5745e+01,-0.0026,0.00268
-1.5737e+01,-0.00284,-0.00996
-1.5730e+01,-0.00284,0.00084
-1.5722e+01,-0.00308,-0.00716
-1.5714e+01,-0.00316,4e-05
-1.5707e+01,-0.00332,-0.0062
-1.5699e+01,-0.00364,0.00116
-1.5691e+01,-0.00316,-0.00772
-1.5684e+01,-0.00292,0.00268
-1.5676e+01,-0.00308,-0.00852
-1.5668e+01,-0.00268,0.00068
-1.5661e+01,-0.00276,-0.00612
-1.5653e+01,-0.00284,0.00172
-1.5645e+01,-0.00316,-0.00796
-1.5637e+01,-0.00308,0.00044
-1.5630e+01,-0.00308,-0.00628
-1.5622e+01,-0.00244,0.00244
-1.5614e+01,-0.0022,-0.00724
-1.5607e+01,-0.00236,0.00084
-1.5599e+01,-0.00236,-0.0054
-1.5591e+01,-0.00284,0.00036
-1.5584e+01,-0.00212,-0.005
-1.5576e+01,-0.00244,-0.00028
-1.5568e+01,-0.00276,-0.0046
-1.5561e+01,-0.00268,0.00164
-1.5553e+01,-0.00324,-0.00732
-1.5545e+01,-0.00268,0.00092
-1.5538e+01,-0.0026,-0.00668
-1.5530e+01,-0.00276,0.00268
-1.5522e+01,-0.00252,-0.00772
-1.5515e+01,-0.00292,0.00268
-1.5507e+01,-0.00268,-0.00828
-1.5499e+01,-0.00292,0.00228
-1.5492e+01,-0.003,-0.0086
-1.5484e+01,-0.00268,0.00164
-1.5476e+01,-0.00252,-0.00732
-1.5469e+01,-0.0026,0.00228
-1.5461e+01,-0.00284,-0.00756
-1.5453e+01,-0.00276,0.00156
-1.5445e+01,-0.003,-0.00692
-1.5438e+01,-0.00268,0.00148
-1.5430e+01,-0.00244,-0.007
-1.5422e+01,-0.0026,0.0018
-1.5415e+01,-0.00244,-0.00676
-1.5407e+01,-0.00244,-0.00132
-1.5399e+01,-0.00252,-0.0034
-1.5392e+01,-0.00228,0.00244
-1.5384e+01,-0.00172,-0.0078
-1.5376e+01,-0.00244,0.0006
-1.5369e+01,-0.00244,-0.00532
-1.5361e+01,-0.00196,0.00212
-1.5353e+01,-0.0018,-0.00748
-1.5346e+01,-0.00188,0.0014
-1.5338e+01,-0.00188,-0.00692
-1.5330e+01,-0.00236,0.00148
-1.5323e+01,-0.00196,-0.00644
-1.5315e+01,-0.00252,0.00084
-1.5307e+01,-0.00196,-0.00588
-1.5300e+01,-0.00252,0.00124
-1.5292e+01,-0.00252,-0.00572
-1.5284e+01,-0.00252,0.0002
-1.5276e+01,-0.0026,-0.00532
-1.5269e+01,-0.00244,0.00268
-1.5261e+01,-0.00228,-0.0098
-1.5253e+01,-0.00196,0.00132
-1.5246e+01,-0.00228,-0.00556
-1.5238e+01,-0.00196,0.00124
-1.5230e+01,-0.00252,-0.00532
-1.5223e+01,-0.00244,4e-05
-1.5215e+01,-0.00236,-0.005
-1.5207e+01,-0.00252,0.00188
-1.5200e+01,-0.00244,-0.00556
-1.5192e+01,-0.0022,0.00012
-1.5184e+01,-0.00276,-0.00484
-1.5177e+01,-0.00244,0.00212
-1.5169e+01,-0.00228,-0.00692
-1.5161e+01,-0.00212,0.00132
-1.5154e+01,-0.00196,-0.00556
-1.5146e+01,-0.00252,0.00132
-1.5138e+01,-0.00284,-0.00612
-1.5131e+01,-0.00252,0.00068
-1.5123e+01,-0.00212,-0.00556
-1.5115e+01,-0.0026,-0.00012
-1.5108e+01,-0.00276,-0.00604
-1.5100e+01,-0.00236,-0.00076
-1.5092e+01,-0.00252,-0.00532
-1.5084e+01,-0.00236,0.0002
-1.5077e+01,-0.0026,-0.00612
-1.5069e+01,-0.0026,-0.00012
-1.5061e+01,-0.00324,-0.00588
-1.5054e+01,-0.00308,0.00268
-1.5046e+01,-0.00268,-0.00932
-1.5038e+01,-0.00308,0.00252
-1.5031e+01,-0.0034,-0.00812
-1.5023e+01,-0.00308,-0.00124
-1.5015e+01,-0.00284,-0.00444
-1.5008e+01,-0.00276,0.00028
-1.5000e+01,-0.00324,-0.00588
-1.4992e+01,-0.00268,0.0026
-1.4985e+01,-0.0026,-0.00716
-1.4977e+01,-0.00252,0.00164
-1.4969e+01,-0.0026,-0.0066
-1.4962e+01,-0.00316,0.00164
-1.4954e+01,-0.0026,-0.00772
-1.4946e+01,-0.0026,0.0022
-1.4939e+01,-0.00276,-0.00804
-1.4931e+01,-0.00276,0.00156
-1.4923e+01,-0.003,-0.00772
-1.4916e+01,-0.00324,-0.00044
-1.4908e+01,-0.00332,-0.00612
-1.4900e+01,-0.003,0.0026
-1.4892e+01,-0.00268,-0.00868
-1.4885e+01,-0.003,0.0022
-1.4877e+01,-0.0026,-0.00852
-1.4869e+01,-0.00284,0.00116
-1.4862e+01,-0.00268,-0.0062
-1.4854e+01,-0.00252,0.00268
-1.4846e+01,-0.00276,-0.00764
-1.4839e+01,-0.0022,0.00268
-1.4831e+01,-0.0022,-0.00788
-1.4823e+01,-0.00244,0.00084
-1.4816e+01,-0.00236,-0.005
-1.4808e+01,-0.00196,0.00204
-1.4800e+01,-0.00228,-0.00636
-1.4793e+01,-0.003,0.00244
-1.4785e+01,-0.00324,-0.00828
-1.4777e+01,-0.003,0.00268
-1.4770e+01,-0.0026,-0.00796
-1.4762e+01,-0.00276,0.00252
-1.4754e+01,-0.00252,-0.0078
-1.4747e+01,-0.00236,0.00084
-1.4739e+01,-0.00228,-0.0058
-1.4731e+01,-0.00276,0.00268
-1.4724e+01,-0.0022,-0.00924
-1.4716e+01,-0.00284,0.00124
-1.4708e+01,-0.0026,-0.00532
-1.4700e+01,-0.00188,0.00244
-1.4693e+01,-0.0022,-0.00772
-1.4685e+01,-0.00236,0.00156
-1.4677e+01,-0.00228,-0.0066
-1.4670e+01,-0.00228,0.00268
-1.4662e+01,-0.00268,-0.00804
-1.4654e+01,-0.00284,0.00092
-1.4647e+01,-0.00324,-0.00636
-1.4639e+01,-0.00244,0.0026
-1.4631e+01,-0.0026,-0.00724
-1.4624e+01,-0.00268,0.0002
-1.4616e+01,-0.00244,-0.00588
-1.4608e+01,-0.00292,0.00076
-1.4601e+01,-0.0026,-0.0058
-1.4593e+01,-0.00276,0.00132
-1.4585e+01,-0.00268,-0.00652
-1.4578e+01,-0.00284,0.00116
-1.4570e+01,-0.00244,-0.00692
-1.4562e+01,-0.00252,0.00268
-1.4555e+01,-0.00252,-0.00812
-1.4547e+01,-0.00244,0.00124
-1.4539e+01,-0.00244,-0.00588
-1.4531e+01,-0.00212,0.00228
-1.4524e+01,-0.00228,-0.00612
-1.4516e+01,-0.00228,0.0014
-1.4508e+01,-0.00228,-0.00548
-1.4501e+01,-0.00164,0.00164
-1.4493e+01,-0.00204,-0.00532
-1.4485e+01,-0.00212,0.00132
-1.4478e+01,-0.00236,-0.00548
-1.4470e+01,-0.00172,0.00268
-1.4462e+01,-0.00204,-0.00716
-1.4455e+01,-0.00228,0.0018
-1.4447e+01,-0.00236,-0.00588
-1.4439e+01,-0.00212,-0.00108
-1.4432e+01,-0.00172,-0.00348
-1.4424e+01,-0.0014,0.00268
-1.4416e+01,-0.00236,-0.00796
-1.4409e+01,-0.0026,0.0018
-1.4401e+01,-0.0026,-0.007
-1.4393e+01,-0.00252,0.00156
-1.4386e+01,-0.003,-0.0058
-1.4378e+01,-0.00276,0.00116
-1.4370e+01,-0.00332,-0.007
-1.4363e+01,-0.00332,0.00156
-1.4355e+01,-0.00268,-0.00748
-1.4347e+01,-0.00308,0.00172
-1.4339e+01,-0.00276,-0.0078
-1.4332e+01,-0.00276,0.00236
-1.4324e+01,-0.00252,-0.00708
-1.4316e+01,-0.00268,0.00228
-1.4309e+01,-0.00276,-0.00708
-1.4301e+01,-0.00228,0.00116
-1.4293e+01,-0.0026,-0.00652
-1.4286e+01,-0.00252,0.00204
-1.4278e+01,-0.00292,-0.00692
-1.4270e+01,-0.00228,0.00268
-1.4263e+01,-0.00252,-0.00804
-1.4255e+01,-0.00292,0.00132
-1.4247e+01,-0.0026,-0.00708
-1.4240e+01,-0.003,-0.00188
-1.4232e+01,-0.00292,-0.0042
-1.4224e+01,-0.003,0.00124
-1.4217e+01,-0.00244,-0.00748
-1.4209e+01,-0.00268,0.00092
-1.4201e+01,-0.00292,-0.00676
-1.4194e+01,-0.00292,0.00084
-1.4186e+01,-0.00276,-0.00684
-1.4178e+01,-0.00276,0.00068
-1.4171e+01,-0.00292,-0.00636
-1.4163e+01,-0.00324,-0.001
-1.4155e+01,-0.00316,-0.00564
-1.4147e+01,-0.00324,0.00204
-1.4140e+01,-0.00372,-0.009
-1.4132e+01,-0.00364,0.00268
-1.4124e+01,-0.00332,-0.01036
-1.4117e+01,-0.00308,0.00188
-1.4109e+01,-0.00348,-0.0086
-1.4101e+01,-0.00308,0.00204
-1.4094e+01,-0.00348,-0.00884
-1.4086e+01,-0.00308,0.00116
-1.4078e+01,-0.00356,-0.00804
-1.4071e+01,-0.00332,0.00268
-1.4063e+01,-0.00324,-0.01028
-1.4055e+01,-0.00316,0.00068
-1.4048e+01,-0.00356,-0.00772
-1.4040e+01,-0.00332,-0.0014
-1.4032e+01,-0.00284,-0.00516
-1.4025e+01,-0.00308,0.00164
-1.4017e+01,-0.0034,-0.00788
-1.4009e+01,-0.0034,0.00196
-1.4002e+01,-0.00276,-0.00788
-1.3994e+01,-0.00316,0.0006
-1.3986e+01,-0.00308,-0.00684
-1.3978e+01,-0.00276,0.00164
-1.3971e+01,-0.00316,-0.00652
-1.3963e+01,-0.00308,0.00212
-1.3955e+01,-0.0034,-0.00804
-1.3948e+01,-0.00292,0.00252
-1.3940e+01,-0.00292,-0.0082
-1.3932e+01,-0.00292,0.00164
-1.3925e+01,-0.00268,-0.00812
-1.3917e+01,-0.003,0.00068
-1.3909e+01,-0.003,-0.00652
-1.3902e+01,-0.00308,0.00228
-1.3894e+01,-0.00244,-0.0078
-1.3886e+01,-0.00252,0.00268
-1.3879e+01,-0.00268,-0.00892
-1.3871e+01,-0.00252,0.00268
-1.3863e+01,-0.00212,-0.00788
-1.3856e+01,-0.0026,-0.001
-1.3848e+01,-0.00292,-0.00364
-1.3840e+01,-0.00212,0.00164
-1.3833e+01,-0.00228,-0.00684
-1.3825e+01,-0.00268,0.00124
-1.3817e+01,-0.0022,-0.00564
-1.3810e+01,-0.00228,0.00172
-1.3802e+01,-0.00228,-0.0058
-1.3794e+01,-0.00252,0.00092
-1.3786e+01,-0.00244,-0.00532
-1.3779e+01,-0.0018,0.00268
-1.3771e+01,-0.00204,-0.00892
-1.3763e+01,-0.0022,0.00268
-1.3756e+01,-0.00244,-0.00692
-1.3748e+01,-0.00236,0.00252
-1.3740e+01,-0.00164,-0.00636
-1.3733e+01,-0.00236,0.00156
-1.3725e+01,-0.00236,-0.00612
-1.3717e+01,-0.00212,0.00268
-1.3710e+01,-0.00172,-0.0066
-1.3702e+01,-0.0018,0.0026
-1.3694e+01,-0.00196,-0.00716
-1.3687e+01,-0.00164,0.00268
-1.3679e+01,-0.00236,-0.00756
-1.3671e+01,-0.00228,0.00196
-1.3664e+01,-0.00212,-0.00684
-1.3656e+01,-0.00188,-0.00108
-1.3648e+01,-0.0026,-0.0034
-1.3641e+01,-0.00228,0.0026
-1.3633e+01,-0.0022,-0.007
-1.3625e+01,-0.00228,0.0026
-1.3618e+01,-0.00244,-0.00652
-1.3610e+01,-0.00252,0.00148
-1.3602e+01,-0.00268,-0.00572
-1.3594e+01,-0.00244,0.00268
-1.3587e+01,-0.00292,-0.00756
-1.3579e+01,-0.00244,0.001
-1.3571e+01,-0.00284,-0.0066
-1.3564e+01,-0.00228,0.00172
-1.3556e+01,-0.0026,-0.00668
-1.3548e+01,-0.00236,0.00268
-1.3541e+01,-0.00228,-0.00916
-1.3533e+01,-0.00188,0.0026
-1.3525e+01,-0.00228,-0.00692
-1.3518e+01,-0.00204,0.00188
-1.3510e+01,-0.00204,-0.00612
-1.3502e+01,-0.00244,0.00196
-1.3495e+01,-0.00172,-0.00636
-1.3487e+01,-0.0022,0.00196
-1.3479e+01,-0.00268,-0.00652
-1.3472e+01,-0.00236,0.00132
-1.3464e+01,-0.00236,-0.0062
-1.3456e+01,-0.00212,0.00028
-1.3449e+01,-0.00284,-0.00468
-1.3441e+01,-0.0022,0.00188
-1.3433e+01,-0.00228,-0.0062
-1.3425e+01,-0.00252,0.00156
-1.3418e+01,-0.00244,-0.0062
-1.3410e+01,-0.00204,0.0006
-1.3402e+01,-0.00292,-0.00588
-1.3395e+01,-0.00276,4e-05
-1.3387e+01,-0.00268,-0.00476
-1.3379e+01,-0.0026,0.00148
-1.3372e+01,-0.0026,-0.00612
-1.3364e+01,-0.00244,0.00108
-1.3356e+01,-0.00244,-0.0066
-1.3349e+01,-0.00292,0.00084
-1.3341e+01,-0.00252,-0.00588
-1.3333e+01,-0.00244,0.0022
-1.3326e+01,-0.0026,-0.00612
-1.3318e+01,-0.0022,0.001
-1.3310e+01,-0.00212,-0.00516
-1.3303e+01,-0.00172,0.00124
-1.3295e+01,-0.00204,-0.00508
-1.3287e+01,-0.00212,0.00132
-1.3280e+01,-0.00188,-0.00596
-1.3272e+01,-0.00164,0.00188
-1.3264e+01,-0.0026,-0.00692
-1.3257e+01,-0.00268,-0.00044
-1.3249e+01,-0.00268,-0.00444
-1.3241e+01,-0.0022,0.00228
-1.3233e+01,-0.00228,-0.00684
-1.3226e+01,-0.00212,0.00172
-1.3218e+01,-0.00252,-0.00732
-1.3210e+01,-0.00228,0.00124
-1.3203e+01,-0.0022,-0.00588
-1.3195e+01,-0.0022,0.0022
-1.3187e+01,-0.00244,-0.0062
-1.3180e+01,-0.0022,0.00068
-1.3172e+01,-0.00228,-0.00548
-1.3164e+01,-0.00228,0.00268
-1.3157e+01,-0.00228,-0.00836
-1.3149e+01,-0.0022,0.00196
-1.3141e+01,-0.00292,-0.00644
-1.3134e+01,-0.0022,0.00132
-1.3126e+01,-0.00244,-0.00732
-1.3118e+01,-0.00276,0.0022
-1.3111e+01,-0.00284,-0.0066
-1.3103e+01,-0.00236,0.00012
-1.3095e+01,-0.00212,-0.00492
-1.3088e+01,-0.00252,0.00228
-1.3080e+01,-0.00236,-0.00772
-1.3072e+01,-0.00252,-0.00036
-1.3065e+01,-0.00244,-0.00436
-1.3057e+01,-0.00212,4e-05
-1.3049e+01,-0.00236,-0.0054
-1.3041e+01,-0.00268,0.00268
-1.3034e+01,-0.0022,-0.00756
-1.3026e+01,-0.00244,0.0014
-1.3018e+01,-0.00212,-0.00588
-1.3011e+01,-0.00204,0.00268
-1.3003e+01,-0.00212,-0.00732
-1.2995e+01,-0.00228,0.00076
-1.2988e+01,-0.00212,-0.00532
-1.2980e+01,-0.00268,0.00268
-1.2972e+01,-0.00236,-0.00796
-1.2965e+01,-0.00228,0.00268
-1.2957e+01,-0.0026,-0.00748
-1.2949e+01,-0.00276,0.0006
-1.2942e+01,-0.00252,-0.00588
-1.2934e+01,-0.00268,0.00044
-1.2926e+01,-0.00284,-0.00572
-1.2919e+01,-0.00284,0.00268
-1.2911e+01,-0.00284,-0.00724
-1.2903e+01,-0.00228,0.00084
-1.2896e+01,-0.00252,-0.00516
-1.2888e+01,-0.00228,0.00268
-1.2880e+01,-0.00196,-0.00908
-1.2873e+01,-0.00196,-0.00092
-1.2865e+01,-0.00228,-0.00316
-1.2857e+01,-0.00204,0.00172
-1.2849e+01,-0.00204,-0.00572
-1.2842e+01,-0.0026,0.0014
-1.2834e+01,-0.00196,-0.00636
-1.2826e+01,-0.00244,0.0006
-1.2819e+01,-0.00244,-0.00484
-1.2811e+01,-0.0018,0.00252
-1.2803e+01,-0.00188,-0.00644
-1.2796e+01,-0.00164,0.00268
-1.2788e+01,-0.00228,-0.00756
-1.2780e+01,-0.00252,0.00252
-1.2773e+01,-0.00244,-0.00828
-1.2765e+01,-0.00228,0.00108
-1.2757e+01,-0.00252,-0.00668
-1.2750e+01,-0.00204,0.00268
-1.2742e+01,-0.00284,-0.00884
-1.2734e+01,-0.00236,0.00268
-1.2727e+01,-0.00268,-0.00692
-1.2719e+01,-0.00268,0.00172
-1.2711e+01,-0.00244,-0.00644
-1.2704e+01,-0.0026,0.00068
-1.2696e+01,-0.00244,-0.0058
-1.2688e+01,-0.00244,0.00108
-1.2680e+01,-0.0022,-0.00604
-1.2673e+01,-0.00292,-0.00148
-1.2665e+01,-0.00252,-0.00396
-1.2657e+01,-0.00268,0.00164
-1.2650e+01,-0.00292,-0.00748
-1.2642e+01,-0.003,0.00228
-1.2634e+01,-0.00284,-0.00724
-1.2627e+01,-0.0026,0.00108
-1.2619e+01,-0.00276,-0.00676
-1.2611e+01,-0.0026,0.00244
-1.2604e+01,-0.00276,-0.00756
-1.2596e+01,-0.00252,0.00228
-1.2588e+01,-0.00236,-0.00676
-1.2581e+01,-0.00292,0.00268
-1.2573e+01,-0.003,-0.00788
-1.2565e+01,-0.003,0.00236
-1.2558e+01,-0.00316,-0.00884
-1.2550e+01,-0.0034,0.00204
-1.2542e+01,-0.003,-0.0086
-1.2535e+01,-0.00332,0.00156
-1.2527e+01,-0.00308,-0.00756
-1.2519e+01,-0.00316,0.00236
-1.2512e+01,-0.00316,-0.0078
-1.2504e+01,-0.00292,0.00148
-1.2496e+01,-0.00284,-0.00636
-1.2488e+01,-0.00252,-0.00068
-1.2481e+01,-0.00212,-0.00412
-1.2473e+01,-0.00236,0.00068
-1.2465e+01,-0.00252,-0.00532
-1.2458e+01,-0.00292,0.00012
-1.2450e+01,-0.003,-0.00556
-1.2442e+01,-0.00284,0.00236
-1.2435e+01,-0.00244,-0.00836
-1.2427e+01,-0.003,0.00268
-1.2419e+01,-0.00252,-0.00756
-1.2412e+01,-0.00252,0.00268
-1.2404e+01,-0.00268,-0.00892
-1.2396e+01,-0.0026,0.00132
-1.2389e+01,-0.0026,-0.00572
-1.2381e+01,-0.00252,0.00132
-1.2373e+01,-0.00316,-0.00692
-1.2366e+01,-0.00292,0.00012
-1.2358e+01,-0.00252,-0.0058
-1.2350e+01,-0.003,0.00124
-1.2343e+01,-0.00276,-0.00668
-1.2335e+01,-0.00268,0.0006
-1.2327e+01,-0.00308,-0.0054
-1.2320e+01,-0.00236,0.0026
-1.2312e+01,-0.00292,-0.00828
-1.2304e+01,-0.00276,0.0014
-1.2296e+01,-0.00236,-0.0066
-1.2289e+01,-0.0026,0.00084
-1.2281e+01,-0.00276,-0.00644
-1.2273e+01,-0.00252,0.00212
-1.2266e+01,-0.0022,-0.00692
-1.2258e+01,-0.0026,0.00188
-1.2250e+01,-0.00252,-0.00668
-1.2243e+01,-0.00236,0.00196
-1.2235e+01,-0.00284,-0.00732
-1.2227e+01,-0.00284,0.00092
-1.2220e+01,-0.00252,-0.0066
-1.2212e+01,-0.00244,0.00132
-1.2204e+01,-0.00276,-0.00724
-1.2197e+01,-0.00316,0.00268
-1.2189e+01,-0.00268,-0.0082
-1.2181e+01,-0.003,-0.0006
-1.2174e+01,-0.00252,-0.00564
-1.2166e+01,-0.00252,0.00236
-1.2158e+01,-0.003,-0.00804
-1.2151e+01,-0.00228,0.0006
-1.2143e+01,-0.00244,-0.00548
-1.2135e+01,-0.00252,0.00156
-1.2127e+01,-0.00244,-0.0058
-1.2120e+01,-0.00212,0.00084
-1.2112e+01,-0.00252,-0.00548
-1.2104e+01,-0.00236,0.00116
-1.2097e+01,-0.00212,-0.00564
-1.2089e+01,-0.00252,-0.001
-1.2081e+01,-0.00252,-0.00428
-1.2074e+01,-0.00308,0.00044
-1.2066e+01,-0.00228,-0.00636
-1.2058e+01,-0.00284,0.00084
-1.2051e+01,-0.00268,-0.00588
-1.2043e+01,-0.00284,0.00164
-1.2035e+01,-0.00292,-0.00716
-1.2028e+01,-0.00284,0.00204
-1.2020e+01,-0.00284,-0.00788
-1.2012e+01,-0.00308,0.00132
-1.2005e+01,-0.00276,-0.00692
-1.1997e+01,-0.00284,-0.0002
-1.1989e+01,-0.00308,-0.00564
-1.1982e+01,-0.003,-0.0002
-1.1974e+01,-0.00324,-0.00628
-1.1966e+01,-0.00316,0.00044
-1.1959e+01,-0.00356,-0.0066
-1.1951e+01,-0.00372,0.00124
-1.1943e+01,-0.0034,-0.00764
-1.1935e+01,-0.00372,0.00188
-1.1928e+01,-0.00372,-0.0086
-1.1920e+01,-0.00332,0.00212
-1.1912e+01,-0.00348,-0.00876
-1.1905e+01,-0.00324,0.00196
-1.1897e+01,-0.00332,-0.00852
-1.1889e+01,-0.00316,-0.00172
-1.1882e+01,-0.00324,-0.00532
-1.1874e+01,-0.00292,0.00108
-1.1866e+01,-0.00276,-0.00684
-1.1859e+01,-0.00228,0.00268
-1.1851e+01,-0.00284,-0.0078
-1.1843e+01,-0.00228,0.00156
-1.1836e+01,-0.00268,-0.00652
-1.1828e+01,-0.00244,0.00068
-1.1820e+01,-0.00236,-0.00532
-1.1813e+01,-0.0026,0.00172
-1.1805e+01,-0.0026,-0.00652
-1.1797e+01,-0.00228,0.00268
-1.1790e+01,-0.0026,-0.00852
-1.1782e+01,-0.003,-0.00012
-1.1774e+01,-0.00308,-0.00588
-1.1767e+01,-0.00236,0.00188
-1.1759e+01,-0.00292,-0.00876
-1.1751e+01,-0.0034,0.00028
-1.1743e+01,-0.00316,-0.00588
-1.1736e+01,-0.00316,0.00148
-1.1728e+01,-0.003,-0.00716
-1.1720e+01,-0.00284,-0.00036
-1.1713e+01,-0.003,-0.00596
-1.1705e+01,-0.00332,-0.00052
-1.1697e+01,-0.00332,-0.00524
-1.1690e+01,-0.00308,0.00092
-1.1682e+01,-0.00308,-0.00732
-1.1674e+01,-0.00292,0.00076
-1.1667e+01,-0.00324,-0.00684
-1.1659e+01,-0.003,0.00132
-1.1651e+01,-0.00284,-0.00684
-1.1644e+01,-0.0022,0.00188
-1.1636e+01,-0.00276,-0.007
-1.1628e+01,-0.00276,0.00124
-1.1621e+01,-0.00244,-0.0062
-1.1613e+01,-0.00244,0.00092
-1.1605e+01,-0.00228,-0.00516
-1.1598e+01,-0.00252,0.00204
-1.1590e+01,-0.00236,-0.00636
-1.1582e+01,-0.00236,0.00268
-1.1575e+01,-0.0022,-0.0086
-1.1567e+01,-0.00228,0.00212
-1.1559e+01,-0.00268,-0.007
-1.1551e+01,-0.00292,0.0002
-1.1544e+01,-0.00244,-0.00516
-1.1536e+01,-0.00244,0.00116
-1.1528e+01,-0.00276,-0.00724
-1.1521e+01,-0.00308,0.00268
-1.1513e+01,-0.00348,-0.00916
-1.1505e+01,-0.003,-0.001
-1.1498e+01,-0.00316,-0.005
-1.1490e+01,-0.00292,0.0002
-1.1482e+01,-0.00236,-0.00588
-1.1475e+01,-0.003,0.00252
-1.1467e+01,-0.0026,-0.0086
-1.1459e+01,-0.003,0.00076
-1.1452e+01,-0.00244,-0.00668
-1.1444e+01,-0.00316,-0.00076
-1.1436e+01,-0.00372,-0.0058
-1.1429e+01,-0.00356,-0.00084
-1.1421e+01,-0.00276,-0.00548
-1.1413e+01,-0.00316,0.00164
-1.1406e+01,-0.00268,-0.00796
-1.1398e+01,-0.00284,0.00228
-1.1390e+01,-0.00284,-0.00804
-1.1382e+01,-0.0022,-0.00012
-1.1375e+01,-0.00324,-0.00556
-1.1367e+01,-0.00356,0.00252
-1.1359e+01,-0.00292,-0.00852
-1.1352e+01,-0.003,0.00068
-1.1344e+01,-0.00324,-0.0066
-1.1336e+01,-0.00308,0.00036
-1.1329e+01,-0.00284,-0.00612
-1.1321e+01,-0.00324,-0.0002
-1.1313e+01,-0.0034,-0.00572
-1.1306e+01,-0.00332,-0.00012
-1.1298e+01,-0.00324,-0.00668
-1.1290e+01,-0.00292,0.00268
-1.1283e+01,-0.003,-0.00988
-1.1275e+01,-0.00292,-0.00076
-1.1267e+01,-0.00324,-0.0054
-1.1260e+01,-0.00316,0.0022
-1.1252e+01,-0.00276,-0.00652
-1.1244e+01,-0.0026,0.00228
-1.1237e+01,-0.00244,-0.00764
-1.1229e+01,-0.00252,0.00188
-1.1221e+01,-0.0026,-0.00724
-1.1214e+01,-0.00228,0.00244
-1.1206e+01,-0.0026,-0.00724
-1.1198e+01,-0.00244,0.0006
-1.1190e+01,-0.0026,-0.00428
-1.1183e+01,-0.00252,0.00268
-1.1175e+01,-0.0022,-0.00772
-1.1167e+01,-0.00204,0.00268
-1.1160e+01,-0.00244,-0.00708
-1.1152e+01,-0.00252,0.00244
-1.1144e+01,-0.00196,-0.00628
-1.1137e+01,-0.00228,0.0022
-1.1129e+01,-0.00204,-0.0062
-1.1121e+01,-0.0022,-0.00076
-1.1114e+01,-0.00244,-0.00404
-1.1106e+01,-0.00188,0.00196
-1.1098e+01,-0.00188,-0.00604
-1.1091e+01,-0.0026,0.00188
-1.1083e+01,-0.00236,-0.00612
-1.1075e+01,-0.00212,0.00148
-1.1068e+01,-0.00228,-0.0062
-1.1060e+01,-0.00244,0.00268
-1.1052e+01,-0.00276,-0.00796
-1.1045e+01,-0.00292,0.00172
-1.1037e+01,-0.00244,-0.00756
-1.1029e+01,-0.00276,0.00164
-1.1022e+01,-0.00244,-0.0066
-1.1014e+01,-0.00212,0.00092
-1.1006e+01,-0.00268,-0.00572
-1.0998e+01,-0.00244,0.00268
-1.0991e+01,-0.00228,-0.00804
-1.0983e+01,-0.00236,0.00268
-1.0975e+01,-0.00212,-0.0066
-1.0968e+01,-0.00196,0.00012
-1.0960e+01,-0.00236,-0.00436
-1.0952e+01,-0.00196,0.00212
-1.0945e+01,-0.00164,-0.00716
-1.0937e+01,-0.00212,0.00268
-1.0929e+01,-0.0018,-0.0078
-1.0922e+01,-0.00228,-0.00092
-1.0914e+01,-0.00212,-0.00396
-1.0906e+01,-0.00308,0.00268
-1.0899e+01,-0.00284,-0.00988
-1.0891e+01,-0.00292,0.00212
-1.0883e+01,-0.00276,-0.00788
-1.0876e+01,-0.00308,0.0002
-1.0868e+01,-0.00276,-0.00596
-1.0860e+01,-0.00244,0.00268
-1.0853e+01,-0.0022,-0.00644
-1.0845e+01,-0.00212,0.00132
-1.0837e+01,-0.0022,-0.00604
-1.0829e+01,-0.00204,0.00268
-1.0822e+01,-0.0022,-0.0078
-1.0814e+01,-0.00172,0.00124
-1.0806e+01,-0.0022,-0.0054
-1.0799e+01,-0.00196,0.00164
-1.0791e+01,-0.0022,-0.00644
-1.0783e+01,-0.00244,0.00268
-1.0776e+01,-0.00244,-0.00756
-1.0768e+01,-0.00196,0.00124
-1.0760e+01,-0.00268,-0.00548
-1.0753e+01,-0.00292,0.00268
-1.0745e+01,-0.00188,-0.0082
-1.0737e+01,-0.00228,0.00268
-1.0730e+01,-0.00204,-0.00764
-1.0722e+01,-0.00236,0.001
-1.0714e+01,-0.00236,-0.0058
-1.0707e+01,-0.00284,0.00036
-1.0699e+01,-0.00308,-0.00652
-1.0691e+01,-0.00308,0.00012
-1.0684e+01,-0.00268,-0.00604
-1.0676e+01,-0.003,0.00268
-1.0668e+01,-0.0026,-0.00716
-1.0661e+01,-0.00268,0.00252
-1.0653e+01,-0.00332,-0.00836
-1.0645e+01,-0.00308,0.00244
-1.0637e+01,-0.00316,-0.00844
-1.0630e+01,-0.00268,0.00028
-1.0622e+01,-0.00268,-0.00588
-1.0614e+01,-0.00316,0.00268
-1.0607e+01,-0.00276,-0.00796
-1.0599e+01,-0.00212,0.00116
-1.0591e+01,-0.00268,-0.00668
-1.0584e+01,-0.00268,0.00204
-1.0576e+01,-0.00228,-0.00764
-1.0568e+01,-0.00244,0.00268
-1.0561e+01,-0.00244,-0.009
-1.0553e+01,-0.00308,0.00068
-1.0545e+01,-0.00252,-0.00636
-1.0538e+01,-0.00268,-0.00012
-1.0530e+01,-0.00228,-0.00492
-1.0522e+01,-0.003,0.0006
-1.0515e+01,-0.00308,-0.00684
-1.0507e+01,-0.00364,0.00228
-1.0499e+01,-0.0038,-0.00908
-1.0492e+01,-0.00372,-0.00132
-1.0484e+01,-0.00412,-0.00644
-1.0476e+01,-0.00356,0.00164
-1.0469e+01,-0.00348,-0.00876
-1.0461e+01,-0.0034,0.00068
-1.0453e+01,-0.00356,-0.00804
-1.0445e+01,-0.00316,0.0002
-1.0438e+01,-0.00372,-0.00804
-1.0430e+01,-0.00364,0.00084
-1.0422e+01,-0.00492,-0.00764
-1.0415e+01,-0.00364,0.00196
-1.0407e+01,-0.00348,-0.00908
-1.0399e+01,-0.0034,0.00148
-1.0392e+01,-0.00364,-0.00756
-1.0384e+01,-0.00372,0.00268
-1.0376e+01,-0.00308,-0.00932
-1.0369e+01,-0.00324,0.00076
-1.0361e+01,-0.00324,-0.0062
-1.0353e+01,-0.00316,0.00268
-1.0346e+01,-0.003,-0.00852
-1.0338e+01,-0.00284,-0.00068
-1.0330e+01,-0.003,-0.00444
-1.0323e+01,-0.00324,0.00012
-1.0315e+01,-0.00284,-0.00636
-1.0307e+01,-0.00276,0.00268
-1.0300e+01,-0.00316,-0.00796
-1.0292e+01,-0.00356,0.00092
-1.0284e+01,-0.003,-0.007
-1.0276e+01,-0.003,0.0022
-1.0269e+01,-0.00316,-0.0086
-1.0261e+01,-0.003,0.00244
-1.0253e+01,-0.00308,-0.0082
-1.0246e+01,-0.00324,0.00044
-1.0238e+01,-0.00268,-0.0066
-1.0230e+01,-0.00292,0.00092
-1.0223e+01,-0.00308,-0.00708
-1.0215e+01,-0.00284,-0.00012
-1.0207e+01,-0.00316,-0.00628
-1.0200e+01,-0.00324,-0.00012
-1.0192e+01,-0.00332,-0.00572
-1.0184e+01,-0.00284,0.00092
-1.0177e+01,-0.00284,-0.007
-1.0169e+01,-0.00276,0.00268
-1.0161e+01,-0.00308,-0.00836
-1.0154e+01,-0.00308,0.00252
-1.0146e+01,-0.00276,-0.00812
-1.0138e+01,-0.00284,-0.00156
-1.0131e+01,-0.00244,-0.00396
-1.0123e+01,-0.00276,0.00188
-1.0115e+01,-0.00244,-0.00652
-1.0108e+01,-0.00284,0.00212
-1.0100e+01,-0.00284,-0.00804
-1.0092e+01,-0.00268,0.00228
-1.0084e+01,-0.00316,-0.0082
-1.0077e+01,-0.00324,0.00268
-1.0069e+01,-0.00332,-0.00916
-1.0061e+01,-0.00292,0.00036
-1.0054e+01,-0.00332,-0.00644
-1.0046e+01,-0.00372,0.00036
-1.0038e+01,-0.00332,-0.0066
-1.0031e+01,-0.00356,0.0006
-1.0023e+01,-0.00308,-0.007
-1.0015e+01,-0.00332,-0.00028
-1.0008e+01,-0.00364,-0.0074
-1.0000e+01,-0.00348,-0.00116
-9.9923e+00,-0.00316,-0.00564
-9.9846e+00,-0.003,0.00204
-9.9770e+00,-0.00356,-0.00908
-9.9693e+00,-0.00308,0.0026
-9.9616e+00,-0.00316,-0.00796
-9.9539e+00,-0.00268,0.00076
-9.9462e+00,-0.00292,-0.0074
-9.9386e+00,-0.0034,-0.00108
-9.9309e+00,-0.00284,-0.00508
-9.9232e+00,-0.00308,0.0018
-9.9155e+00,-0.003,-0.00772
-9.9078e+00,-0.00292,0.00268
-9.9002e+00,-0.003,-0.0082
-9.8925e+00,-0.00308,0.00068
-9.8848e+00,-0.00316,-0.00588
-9.8771e+00,-0.00252,0.00268
-9.8694e+00,-0.00284,-0.0082
-9.8618e+00,-0.00252,0.00228
-9.8541e+00,-0.00252,-0.00748
-9.8464e+00,-0.0026,0.00204
-9.8387e+00,-0.00244,-0.00636
-9.8310e+00,-0.00212,0.00268
-9.8233e+00,-0.0022,-0.00676
-9.8157e+00,-0.0022,0.00268
-9.8080e+00,-0.00204,-0.0074
-9.8003e+00,-0.00228,0.00268
-9.7926e+00,-0.00276,-0.00732
-9.7849e+00,-0.00252,0.00244
-9.7773e+00,-0.00268,-0.0074
-9.7696e+00,-0.00244,0.00252
-9.7619e+00,-0.00252,-0.00748
-9.7542e+00,-0.00308,-0.00132
-9.7465e+00,-0.00236,-0.00372
-9.7389e+00,-0.0026,0.00076
-9.7312e+00,-0.00308,-0.0066
-9.7235e+00,-0.00268,0.00116
-9.7158e+00,-0.00284,-0.00692
-9.7081e+00,-0.00236,0.001
-9.7005e+00,-0.00292,-0.00684
-9.6928e+00,-0.00276,0.0014
-9.6851e+00,-0.00292,-0.0062
-9.6774e+00,-0.0026,0.00044
-9.6697e+00,-0.0034,-0.00668
-9.6621e+00,-0.00364,0.00068
-9.6544e+00,-0.00292,-0.00636
-9.6467e+00,-0.0026,0.00036
-9.6390e+00,-0.00316,-0.00644
-9.6313e+00,-0.0026,0.00204
-9.6237e+00,-0.00308,-0.00812
-9.6160e+00,-0.00284,0.00068
-9.6083e+00,-0.003,-0.00708
-9.6006e+00,-0.00284,0.00196
-9.5929e+00,-0.003,-0.00772
-9.5853e+00,-0.00284,0.00188
-9.5776e+00,-0.00316,-0.00796
-9.5699e+00,-0.00268,0.001
-9.5622e+00,-0.00324,-0.00876
-9.5545e+00,-0.00332,-0.00124
-9.5469e+00,-0.0038,-0.00636
-9.5392e+00,-0.00388,4e-05
-9.5315e+00,-0.00348,-0.00724
-9.5238e+00,-0.00372,4e-05
-9.5161e+00,-0.00372,-0.00716
-9.5084e+00,-0.00356,0.00148
-9.5008e+00,-0.00348,-0.00788
-9.4931e+00,-0.0038,0.00044
-9.4854e+00,-0.00364,-0.00804
-9.4777e+00,-0.00332,0.00052
-9.4700e+00,-0.00308,-0.00676
-9.4624e+00,-0.00316,-0.00044
-9.4547e+00,-0.0034,-0.00604
-9.4470e+00,-0.00348,0.00124
-9.4393e+00,-0.0034,-0.0074
-9.4316e+00,-0.0034,0.0006
-9.4240e+00,-0.00332,-0.00708
-9.4163e+00,-0.00324,0.00212
-9.4086e+00,-0.00356,-0.0086
-9.4009e+00,-0.00284,0.00164
-9.3932e+00,-0.00324,-0.00876
-9.3856e+00,-0.00324,0.00052
-9.3779e+00,-0.00292,-0.0062
-9.3702e+00,-0.00308,0.00196
-9.3625e+00,-0.00292,-0.00756
-9.3548e+00,-0.003,0.00028
-9.3472e+00,-0.00308,-0.00588
-9.3395e+00,-0.003,0.00068
-9.3318e+00,-0.00276,-0.00676
-9.3241e+00,-0.00276,0.00068
-9.3164e+00,-0.00292,-0.00652
-9.3088e+00,-0.003,0.00172
-9.3011e+00,-0.00268,-0.0074
-9.2934e+00,-0.00252,0.00164
-9.2857e+00,-0.0026,-0.00716
-9.2780e+00,-0.0026,0.00116
-9.2704e+00,-0.0026,-0.00676
-9.2627e+00,-0.00316,0.00244
-9.2550e+00,-0.00276,-0.0078
-9.2473e+00,-0.00268,-0.0002
-9.2396e+00,-0.0034,-0.00628
-9.2320e+00,-0.00292,0.00052
-9.2243e+00,-0.00284,-0.00628
-9.2166e+00,-0.003,0.0002
-9.2089e+00,-0.00276,-0.00556
-9.2012e+00,-0.00292,0.00052
-9.1935e+00,-0.00284,-0.0066
-9.1859e+00,-0.00284,0.00116
-9.1782e+00,-0.00284,-0.0074
-9.1705e+00,-0.0026,0.00124
-9.1628e+00,-0.00292,-0.00708
-9.1551e+00,-0.00332,0.00092
-9.1475e+00,-0.00308,-0.00644
-9.1398e+00,-0.0026,0.00268
-9.1321e+00,-0.00284,-0.0082
-9.1244e+00,-0.00356,0.00268
-9.1167e+00,-0.00308,-0.01044
-9.1091e+00,-0.00324,0.00084
-9.1014e+00,-0.00276,-0.0062
-9.0937e+00,-0.00292,0.00196
-9.0860e+00,-0.00284,-0.0082
-9.0783e+00,-0.00292,0.0022
-9.0707e+00,-0.00284,-0.0074
-9.0630e+00,-0.00276,0.00076
-9.0553e+00,-0.00276,-0.00524
-9.0476e+00,-0.00276,0.00084
-9.0399e+00,-0.00308,-0.00692
-9.0323e+00,-0.00284,0.00268
-9.0246e+00,-0.00332,-0.00812
-9.0169e+00,-0.00308,0.00268
-9.0092e+00,-0.00284,-0.00812
-9.0015e+00,-0.003,0.0026
-8.9939e+00,-0.00268,-0.0078
-8.9862e+00,-0.00268,0.00052
-8.9785e+00,-0.00284,-0.00564
-8.9708e+00,-0.00268,0.0002
-8.9631e+00,-0.00268,-0.00508
-8.9555e+00,-0.0026,-4e-05
-8.9478e+00,-0.00252,-0.00492
-8.9401e+00,-0.00292,0.00268
-8.9324e+00,-0.003,-0.00732
-8.9247e+00,-0.00308,0.00076
-8.9171e+00,-0.00284,-0.00692
-8.9094e+00,-0.00252,0.00212
-8.9017e+00,-0.00268,-0.00692
-8.8940e+00,-0.00308,0.00044
-8.8863e+00,-0.003,-0.0066
-8.8786e+00,-0.00308,0.00132
-8.8710e+00,-0.00292,-0.00708
-8.8633e+00,-0.00348,-0.001
-8.8556e+00,-0.00356,-0.00572
-8.8479e+00,-0.00364,-0.00076
-8.8402e+00,-0.00356,-0.00676
-8.8326e+00,-0.00348,0.00132
-8.8249e+00,-0.0034,-0.0074
-8.8172e+00,-0.00308,-0.0006
-8.8095e+00,-0.00244,-0.00484
-8.8018e+00,-0.00324,0.00188
-8.7942e+00,-0.00268,-0.00748
-8.7865e+00,-0.0026,0.00244
-8.7788e+00,-0.003,-0.00852
-8.7711e+00,-0.003,0.00076
-8.7634e+00,-0.00284,-0.00692
-8.7558e+00,-0.00308,0.00252
-8.7481e+00,-0.00292,-0.00804
-8.7404e+00,-0.00292,0.00252
-8.7327e+00,-0.00284,-0.00828
-8.7250e+00,-0.00284,0.00148
-8.7174e+00,-0.0034,-0.00748
-8.7097e+00,-0.0034,0.00268
-8.7020e+00,-0.00284,-0.00892
-8.6943e+00,-0.00356,0.00092
-8.6866e+00,-0.00324,-0.00692
-8.6790e+00,-0.003,0.00132
-8.6713e+00,-0.00316,-0.00732
-8.6636e+00,-0.0034,0.00068
-8.6559e+00,-0.00308,-0.00756
-8.6482e+00,-0.00324,4e-05
-8.6406e+00,-0.00356,-0.0062
-8.6329e+00,-0.00308,0.00044
-8.6252e+00,-0.00324,-0.00708
-8.6175e+00,-0.00308,-0.00084
-8.6098e+00,-0.00316,-0.00604
-8.6022e+00,-0.00332,0.00028
-8.5945e+00,-0.00284,-0.00652
-8.5868e+00,-0.00324,0.0026
-8.5791e+00,-0.00268,-0.00916
-8.5714e+00,-0.00276,-0.00124
-8.5637e+00,-0.00284,-0.00436
-8.5561e+00,-0.0034,0.00076
-8.5484e+00,-0.00292,-0.00668
-8.5407e+00,-0.00316,0.001
-8.5330e+00,-0.00332,-0.00732
-8.5253e+00,-0.0034,0.00124
-8.5177e+00,-0.00348,-0.00788
-8.5100e+00,-0.0034,-0.0006
-8.5023e+00,-0.00316,-0.00596
-8.4946e+00,-0.00356,0.00036
-8.4869e+00,-0.00356,-0.00764
-8.4793e+00,-0.0038,0.00092
-8.4716e+00,-0.00348,-0.00756
-8.4639e+00,-0.00324,0.00252
-8.4562e+00,-0.00316,-0.00876
-8.4485e+00,-0.00308,0.00196
-8.4409e+00,-0.00276,-0.00812
-8.4332e+00,-0.00276,0.00116
-8.4255e+00,-0.00244,-0.00756
-8.4178e+00,-0.00292,0.0002
-8.4101e+00,-0.00268,-0.00564
-8.4025e+00,-0.00284,0.00252
-8.3948e+00,-0.00276,-0.00748
-8.3871e+00,-0.00284,0.00012
-8.3794e+00,-0.00252,-0.00476
-8.3717e+00,-0.00284,0.00028
-8.3641e+00,-0.00268,-0.00572
-8.3564e+00,-0.00332,0.00132
-8.3487e+00,-0.00276,-0.00724
-8.3410e+00,-0.00292,0.001
-8.3333e+00,-0.003,-0.00684
-8.3257e+00,-0.00308,0.00148
-8.3180e+00,-0.00316,-0.00772
-8.3103e+00,-0.00308,-0.00012
-8.3026e+00,-0.00268,-0.0062
-8.2949e+00,-0.00364,-0.00052
-8.2873e+00,-0.00348,-0.00532
-8.2796e+00,-0.00308,0.00076
-8.2719e+00,-0.00364,-0.00756
-8.2642e+00,-0.0034,0.00108
-8.2565e+00,-0.003,-0.007
-8.2488e+00,-0.00356,-0.00028
-8.2412e+00,-0.00316,-0.00596
-8.2335e+00,-0.003,4e-05
-8.2258e+00,-0.00244,-0.0058
-8.2181e+00,-0.00252,0.00212
-8.2104e+00,-0.00268,-0.00756
-8.2028e+00,-0.00276,0.00028
-8.1951e+00,-0.00284,-0.00532
-8.1874e+00,-0.00244,-0.00172
-8.1797e+00,-0.00292,-0.00396
-8.1720e+00,-0.00308,0.00172
-8.1644e+00,-0.00244,-0.00732
-8.1567e+00,-0.00316,0.00252
-8.1490e+00,-0.003,-0.00868
-8.1413e+00,-0.00308,0.00148
-8.1336e+00,-0.003,-0.00684
-8.1260e+00,-0.003,0.00012
-8.1183e+00,-0.00276,-0.00604
-8.1106e+00,-0.00308,-4e-05
-8.1029e+00,-0.0034,-0.00612
-8.0952e+00,-0.00372,-0.00012
-8.0876e+00,-0.00388,-0.00668
-8.0799e+00,-0.00388,0.00052
-8.0722e+00,-0.00396,-0.00764
-8.0645e+00,-0.00284,0.00044
-8.0568e+00,-0.00332,-0.00732
-8.0492e+00,-0.00372,0.0018
-8.0415e+00,-0.00364,-0.00908
-8.0338e+00,-0.00388,-0.00052
-8.0261e+00,-0.00396,-0.007
-8.0184e+00,-0.00348,0.00044
-8.0108e+00,-0.00356,-0.00708
-8.0031e+00,-0.00324,0.0022
-7.9954e+00,-0.00332,-0.00812
-7.9877e+00,-0.00308,-0.0018
-7.9800e+00,-0.00332,-0.0042
-7.9724e+00,-0.003,0.00012
-7.9647e+00,-0.00284,-0.00652
-7.9570e+00,-0.00284,0.00068
-7.9493e+00,-0.00324,-0.0074
-7.9416e+00,-0.00308,0.00188
-7.9339e+00,-0.003,-0.00852
-7.9263e+00,-0.00348,0.0026
-7.9186e+00,-0.00348,-0.00876
-7.9109e+00,-0.00308,-0.00116
-7.9032e+00,-0.00364,-0.00604
-7.8955e+00,-0.00324,0.0018
-7.8879e+00,-0.00316,-0.00884
-7.8802e+00,-0.00308,0.00132
-7.8725e+00,-0.00316,-0.0082
-7.8648e+00,-0.00316,0.00156
-7.8571e+00,-0.00324,-0.00788
-7.8495e+00,-0.0034,0.00036
-7.8418e+00,-0.00356,-0.00772
-7.8341e+00,-0.0038,0.00124
-7.8264e+00,-0.00324,-0.00916
-7.8187e+00,-0.00396,0.0002
-7.8111e+00,-0.0034,-0.00772
-7.8034e+00,-0.00332,-0.00076
-7.7957e+00,-0.00388,-0.00612
-7.7880e+00,-0.00388,0.00116
-7.7803e+00,-0.00404,-0.0094
-7.7727e+00,-0.00372,0.00212
-7.7650e+00,-0.00332,-0.00884
-7.7573e+00,-0.00348,0.00068
-7.7496e+00,-0.00332,-0.00748
-7.7419e+00,-0.0034,-0.00036
-7.7343e+00,-0.00372,-0.00628
-7.7266e+00,-0.0034,-0.0006
-7.7189e+00,-0.00356,-0.00732
-7.7112e+00,-0.00332,-4e-05
-7.7035e+00,-0.00388,-0.00684
-7.6959e+00,-0.00356,0.001
-7.6882e+00,-0.00404,-0.00836
-7.6805e+00,-0.00316,0.00116
-7.6728e+00,-0.0038,-0.00844
-7.6651e+00,-0.00372,-0.00116
-7.6575e+00,-0.00356,-0.00596
-7.6498e+00,-0.00372,0.00172
-7.6421e+00,-0.00372,-0.00876
-7.6344e+00,-0.00404,-4e-05
-7.6267e+00,-0.0038,-0.00708
-7.6190e+00,-0.00348,4e-05
-7.6114e+00,-0.0034,-0.00764
-7.6037e+00,-0.00404,0.00068
-7.5960e+00,-0.00396,-0.009
-7.5883e+00,-0.00412,-0.0014
-7.5806e+00,-0.0042,-0.00652
-7.5730e+00,-0.00388,0.00068
-7.5653e+00,-0.00324,-0.00748
-7.5576e+00,-0.00364,0.00052
-7.5499e+00,-0.0034,-0.00796
-7.5422e+00,-0.00364,-0.0002
-7.5346e+00,-0.00316,-0.007
-7.5269e+00,-0.00356,0.00204
-7.5192e+00,-0.00364,-0.00972
-7.5115e+00,-0.0034,-0.001
-7.5038e+00,-0.00372,-0.00588
-7.4962e+00,-0.00372,0.0014
-7.4885e+00,-0.00324,-0.00852
-7.4808e+00,-0.00404,0.00028
-7.4731e+00,-0.0034,-0.00868
-7.4654e+00,-0.00348,0.00244
-7.4578e+00,-0.00364,-0.0094
-7.4501e+00,-0.00356,0.00148
-7.4424e+00,-0.0034,-0.00844
-7.4347e+00,-0.00356,0.00132
-7.4270e+00,-0.00372,-0.00788
-7.4194e+00,-0.00372,-0.00132
-7.4117e+00,-0.00324,-0.00676
-7.4040e+00,-0.00444,-0.00036
-7.3963e+00,-0.00364,-0.0074
-7.3886e+00,-0.00388,-0.00052
-7.3810e+00,-0.0038,-0.0074
-7.3733e+00,-0.00396,-0.00036
-7.3656e+00,-0.00388,-0.00796
-7.3579e+00,-0.00412,-0.00036
-7.3502e+00,-0.0038,-0.0078
-7.3425e+00,-0.00404,0.00204
-7.3349e+00,-0.00404,-0.01004
-7.3272e+00,-0.00388,0.00132
-7.3195e+00,-0.00412,-0.00908
-7.3118e+00,-0.00348,-4e-05
-7.3041e+00,-0.0038,-0.00772
-7.2965e+00,-0.00372,0.00036
-7.2888e+00,-0.0038,-0.00788
-7.2811e+00,-0.00364,0.00268
-7.2734e+00,-0.00436,-0.01076
-7.2657e+00,-0.00388,0.00108
-7.2581e+00,-0.0042,-0.00916
-7.2504e+00,-0.00436,-0.0006
-7.2427e+00,-0.00436,-0.00812
-7.2350e+00,-0.0046,0.00052
-7.2273e+00,-0.00484,-0.00932
-7.2197e+00,-0.00428,-0.00012
-7.2120e+00,-0.00452,-0.00932
-7.2043e+00,-0.0046,-0.001
-7.1966e+00,-0.00436,-0.00812
-7.1889e+00,-0.00532,-0.00084
-7.1813e+00,-0.0046,-0.00908
-7.1736e+00,-0.00452,0.00036
-7.1659e+00,-0.00476,-0.00932
-7.1582e+00,-0.00476,-0.001
-7.1505e+00,-0.00468,-0.00812
-7.1429e+00,-0.0046,-0.00012
-7.1352e+00,-0.0046,-0.00884
-7.1275e+00,-0.00468,-0.00084
-7.1198e+00,-0.0046,-0.00764
-7.1121e+00,-0.00452,-0.00012
-7.1045e+00,-0.00444,-0.00876
-7.0968e+00,-0.00412,0.00084
-7.0891e+00,-0.0046,-0.00996
-7.0814e+00,-0.00436,-0.00036
-7.0737e+00,-0.00492,-0.00956
-7.0661e+00,-0.00524,-0.00156
-7.0584e+00,-0.00484,-0.00804
-7.0507e+00,-0.00508,-0.0002
-7.0430e+00,-0.00516,-0.00988
-7.0353e+00,-0.00548,-0.00044
-7.0276e+00,-0.00476,-0.00844
-7.0200e+00,-0.00484,-0.00324
-7.0123e+00,-0.00444,-0.00588
-7.0046e+00,-0.00436,0.00268
-6.9969e+00,-0.00412,-0.0114
-6.9892e+00,-0.00436,0.0002
-6.9816e+00,-0.00484,-0.009
-6.9739e+00,-0.00484,0.00076
-6.9662e+00,-0.00484,-0.01012
-6.9585e+00,-0.00516,-0.00188
-6.9508e+00,-0.00532,-0.00804
-6.9432e+00,-0.00492,4e-05
-6.9355e+00,-0.00492,-0.01124
-6.9278e+00,-0.00468,-0.00132
-6.9201e+00,-0.0058,-0.00996
-6.9124e+00,-0.0054,-0.00132
-6.9048e+00,-0.00516,-0.00868
-6.8971e+00,-0.00524,-0.00188
-6.8894e+00,-0.00556,-0.00836
-6.8817e+00,-0.00564,-0.00148
-6.8740e+00,-0.00532,-0.00964
-6.8664e+00,-0.005,-0.0022
-6.8587e+00,-0.00532,-0.00868
-6.8510e+00,-0.00524,-0.0018
-6.8433e+00,-0.00508,-0.00884
-6.8356e+00,-0.0058,-0.00268
-6.8280e+00,-0.0054,-0.009
-6.8203e+00,-0.00548,-0.00436
-6.8126e+00,-0.00556,-0.00692
-6.8049e+00,-0.00556,-0.0014
-6.7972e+00,-0.00572,-0.01004
-6.7896e+00,-0.00564,-0.00044
-6.7819e+00,-0.0054,-0.011
-6.7742e+00,-0.00556,-0.00212
-6.7665e+00,-0.00548,-0.0086
-6.7588e+00,-0.00516,-0.00092
-6.7512e+00,-0.00588,-0.00956
-6.7435e+00,-0.0054,4e-05
-6.7358e+00,-0.00532,-0.0102
-6.7281e+00,-0.0054,-0.00204
-6.7204e+00,-0.0058,-0.00916
-6.7127e+00,-0.00556,-0.00148
-6.7051e+00,-0.00596,-0.00956
-6.6974e+00,-0.00604,-0.00316
-6.6897e+00,-0.00604,-0.00892
-6.6820e+00,-0.00596,-0.00156
-6.6743e+00,-0.00572,-0.00988
-6.6667e+00,-0.00604,-0.0006
-6.6590e+00,-0.00628,-0.01124
-6.6513e+00,-0.00628,-0.00172
-6.6436e+00,-0.00596,-0.01004
-6.6359e+00,-0.00588,-0.00076
-6.6283e+00,-0.00588,-0.01068
-6.6206e+00,-0.0058,-0.00444
-6.6129e+00,-0.00556,-0.00684
-6.6052e+00,-0.0058,-0.00212
-6.5975e+00,-0.00588,-0.0094
-6.5899e+00,-0.00604,-0.0034
-6.5822e+00,-0.00564,-0.00884
-6.5745e+00,-0.00604,-0.00052
-6.5668e+00,-0.00628,-0.01124
-6.5591e+00,-0.00612,-0.00092
-6.5515e+00,-0.00596,-0.01156
-6.5438e+00,-0.0062,-0.00236
-6.5361e+00,-0.00604,-0.0098
-6.5284e+00,-0.00548,-0.00212
-6.5207e+00,-0.00532,-0.00876
-6.5131e+00,-0.00604,-0.0022
-6.5054e+00,-0.00572,-0.00948
-6.4977e+00,-0.00604,-0.00132
-6.4900e+00,-0.0058,-0.0102
-6.4823e+00,-0.00548,-0.00164
-6.4747e+00,-0.00548,-0.0102
-6.4670e+00,-0.00548,-0.00108
-6.4593e+00,-0.00604,-0.01132
-6.4516e+00,-0.00596,-0.0018
-6.4439e+00,-0.00588,-0.01044
-6.4363e+00,-0.00548,-0.00276
-6.4286e+00,-0.00524,-0.00812
-6.4209e+00,-0.00556,-0.00052
-6.4132e+00,-0.0054,-0.00988
-6.4055e+00,-0.0062,-0.00132
-6.3978e+00,-0.00644,-0.01084
-6.3902e+00,-0.00588,-0.00124
-6.3825e+00,-0.0062,-0.01028
-6.3748e+00,-0.00588,-0.00356
-6.3671e+00,-0.00572,-0.0082
-6.3594e+00,-0.0062,-0.00252
-6.3518e+00,-0.00644,-0.00972
-6.3441e+00,-0.0058,-0.00156
-6.3364e+00,-0.00612,-0.00956
-6.3287e+00,-0.00556,-0.00308
-6.3210e+00,-0.00612,-0.0094
-6.3134e+00,-0.00588,-0.0014
-6.3057e+00,-0.00628,-0.01012
-6.2980e+00,-0.00572,-0.00116
-6.2903e+00,-0.00628,-0.01124
-6.2826e+00,-0.00668,-0.00332
-6.2750e+00,-0.00644,-0.00916
-6.2673e+00,-0.00636,-0.0022
-6.2596e+00,-0.00636,-0.01068
-6.2519e+00,-0.00676,-0.00244
-6.2442e+00,-0.00676,-0.01068
-6.2366e+00,-0.00668,-0.00412
-6.2289e+00,-0.00612,-0.00836
-6.2212e+00,-0.00668,-0.0038
-6.2135e+00,-0.00684,-0.00964
-6.2058e+00,-0.00692,-0.00276
-6.1982e+00,-0.00676,-0.01124
-6.1905e+00,-0.00676,-0.00164
-6.1828e+00,-0.00708,-0.01236
-6.1751e+00,-0.00756,-0.0022
-6.1674e+00,-0.00756,-0.01252
-6.1598e+00,-0.0078,-0.00444
-6.1521e+00,-0.0078,-0.01124
-6.1444e+00,-0.00764,-0.00364
-6.1367e+00,-0.00764,-0.01132
-6.1290e+00,-0.00788,-0.00332
-6.1214e+00,-0.00852,-0.01356
-6.1137e+00,-0.0082,-0.00324
-6.1060e+00,-0.0082,-0.01276
-6.0983e+00,-0.00804,-0.00332
-6.0906e+00,-0.00788,-0.01164
-6.0829e+00,-0.00788,-0.00436
-6.0753e+00,-0.00788,-0.01076
-6.0676e+00,-0.00748,-0.00228
-6.0599e+00,-0.00732,-0.01204
-6.0522e+00,-0.00748,-0.00188
-6.0445e+00,-0.007,-0.0118
-6.0369e+00,-0.00716,-0.00588
-6.0292e+00,-0.00684,-0.00876
-6.0215e+00,-0.0074,-0.00268
-6.0138e+00,-0.00732,-0.01156
-6.0061e+00,-0.00732,-0.00244
-5.9985e+00,-0.00756,-0.01292
-5.9908e+00,-0.00764,-0.00364
-5.9831e+00,-0.00724,-0.01116
-5.9754e+00,-0.00676,-0.00428
-5.9677e+00,-0.00676,-0.01004
-5.9601e+00,-0.00708,-0.00188
-5.9524e+00,-0.00764,-0.01356
-5.9447e+00,-0.00756,-0.00364
-5.9370e+00,-0.00796,-0.01164
-5.9293e+00,-0.00764,-0.00284
-5.9217e+00,-0.00764,-0.01204
-5.9140e+00,-0.00748,-0.00324
-5.9063e+00,-0.00764,-0.01148
-5.8986e+00,-0.00748,-0.0042
-5.8909e+00,-0.00748,-0.0106
-5.8833e+00,-0.0078,-0.00132
-5.8756e+00,-0.00708,-0.01356
-5.8679e+00,-0.0078,-0.00244
-5.8602e+00,-0.00748,-0.01284
-5.8525e+00,-0.00764,-0.0046
-5.8449e+00,-0.00804,-0.01124
-5.8372e+00,-0.00836,-0.00612
-5.8295e+00,-0.00852,-0.01036
-5.8218e+00,-0.00956,-0.00548
-5.8141e+00,-0.00916,-0.01332
-5.8065e+00,-0.00932,-0.00444
-5.7988e+00,-0.00924,-0.01332
-5.7911e+00,-0.00908,-0.0046
-5.7834e+00,-0.00964,-0.01404
-5.7757e+00,-0.009,-0.0046
-5.7680e+00,-0.00956,-0.0146
-5.7604e+00,-0.00948,-0.00732
-5.7527e+00,-0.00972,-0.01244
-5.7450e+00,-0.00972,-0.00356
-5.7373e+00,-0.0094,-0.0146
-5.7296e+00,-0.009,-0.00692
-5.7220e+00,-0.0098,-0.01236
-5.7143e+00,-0.0094,-0.00388
-5.7066e+00,-0.0098,-0.01444
-5.6989e+00,-0.00924,-0.00484
-5.6912e+00,-0.00956,-0.01436
-5.6836e+00,-0.00996,-0.0066
-5.6759e+00,-0.00948,-0.01316
-5.6682e+00,-0.00948,-0.00628
-5.6605e+00,-0.00916,-0.013
-5.6528e+00,-0.0102,-0.00852
-5.6452e+00,-0.0102,-0.01148
-5.6375e+00,-0.01028,-0.0054
-5.6298e+00,-0.01012,-0.01468
-5.6221e+00,-0.01036,-0.00492
-5.6144e+00,-0.0098,-0.0158
-5.6068e+00,-0.01012,-0.00484
-5.5991e+00,-0.01028,-0.01388
-5.5914e+00,-0.0102,-0.00596
-5.5837e+00,-0.00948,-0.0138
-5.5760e+00,-0.00988,-0.00572
-5.5684e+00,-0.01012,-0.01444
-5.5607e+00,-0.00964,-0.00612
-5.5530e+00,-0.00988,-0.01292
-5.5453e+00,-0.00972,-0.00284
-5.5376e+00,-0.00972,-0.01604
-5.5300e+00,-0.0094,-0.00556
-5.5223e+00,-0.00924,-0.013
-5.5146e+00,-0.0098,-0.00572
-5.5069e+00,-0.0094,-0.01412
-5.4992e+00,-0.00932,-0.00436
-5.4916e+00,-0.00956,-0.0154
-5.4839e+00,-0.00948,-0.00428
-5.4762e+00,-0.00972,-0.01492
-5.4685e+00,-0.009,-0.00484
-5.4608e+00,-0.00932,-0.01356
-5.4531e+00,-0.00884,-0.00708
-5.4455e+00,-0.00956,-0.01148
-5.4378e+00,-0.00916,-0.00412
-5.4301e+00,-0.00932,-0.01412
-5.4224e+00,-0.00972,-0.00492
-5.4147e+00,-0.00924,-0.01452
-5.4071e+00,-0.00964,-0.00612
-5.3994e+00,-0.00892,-0.01196
-5.3917e+00,-0.00972,-0.00676
-5.3840e+00,-0.00916,-0.01204
-5.3763e+00,-0.00924,-0.00412
-5.3687e+00,-0.00868,-0.01412
-5.3610e+00,-0.00892,-0.00564
-5.3533e+00,-0.00916,-0.0118
-5.3456e+00,-0.00924,-0.0066
-5.3379e+00,-0.00972,-0.01276
-5.3303e+00,-0.00964,-0.00524
-5.3226e+00,-0.00972,-0.01324
-5.3149e+00,-0.00948,-0.00556
-5.3072e+00,-0.00916,-0.01276
-5.2995e+00,-0.00908,-0.00316
-5.2919e+00,-0.00892,-0.01524
-5.2842e+00,-0.00948,-0.0046
-5.2765e+00,-0.0094,-0.0142
-5.2688e+00,-0.00916,-0.00476
-5.2611e+00,-0.00948,-0.01404
-5.2535e+00,-0.00996,-0.00716
-5.2458e+00,-0.00972,-0.01236
-5.2381e+00,-0.00996,-0.00468
-5.2304e+00,-0.00964,-0.01468
-5.2227e+00,-0.01036,-0.00524
-5.2151e+00,-0.00996,-0.01484
-5.2074e+00,-0.01052,-0.00636
-5.1997e+00,-0.00988,-0.01436
-5.1920e+00,-0.0102,-0.00468
-5.1843e+00,-0.01044,-0.01628
-5.1767e+00,-0.00972,-0.0054
-5.1690e+00,-0.0106,-0.01516
-5.1613e+00,-0.0098,-0.00604
-5.1536e+00,-0.00996,-0.01436
-5.1459e+00,-0.01028,-0.00404
-5.1382e+00,-0.01004,-0.01492
-5.1306e+00,-0.00972,-0.00628
-5.1229e+00,-0.00988,-0.01356
-5.1152e+00,-0.00972,-0.0074
-5.1075e+00,-0.01012,-0.013
-5.0998e+00,-0.01004,-0.00524
-5.0922e+00,-0.0102,-0.01516
-5.0845e+00,-0.01012,-0.00812
-5.0768e+00,-0.01004,-0.01276
-5.0691e+00,-0.01012,-0.00852
-5.0614e+00,-0.0102,-0.0114
-5.0538e+00,-0.01036,-0.00684
-5.0461e+00,-0.01036,-0.01428
-5.0384e+00,-0.01052,-0.00564
-5.0307e+00,-0.01012,-0.01436
-5.0230e+00,-0.0106,-0.00604
-5.0154e+00,-0.0106,-0.01476
-5.0077e+00,-0.01116,-0.00788
-5.0000e+00,-0.01068,-0.01348
-4.9923e+00,-0.01084,-0.00524
-4.9846e+00,-0.01092,-0.01516
-4.9770e+00,-0.01108,-0.0062
-4.9693e+00,-0.01116,-0.01524
-4.9616e+00,-0.011,-0.00916
-4.9539e+00,-0.01172,-0.01388
-4.9462e+00,-0.01132,-0.00588
-4.9386e+00,-0.0114,-0.01604
-4.9309e+00,-0.011,-0.00316
-4.9232e+00,-0.01148,-0.01764
-4.9155e+00,-0.01092,-0.00668
-4.9078e+00,-0.01124,-0.015
-4.9002e+00,-0.01052,-0.00636
-4.8925e+00,-0.01068,-0.01572
-4.8848e+00,-0.01108,-0.00748
-4.8771e+00,-0.01084,-0.01524
-4.8694e+00,-0.01124,-0.00804
-4.8618e+00,-0.0106,-0.01372
-4.8541e+00,-0.01084,-0.00532
-4.8464e+00,-0.011,-0.01636
-4.8387e+00,-0.011,-0.00764
-4.8310e+00,-0.01076,-0.01372
-4.8233e+00,-0.011,-0.0086
-4.8157e+00,-0.01076,-0.01308
-4.8080e+00,-0.01044,-0.00596
-4.8003e+00,-0.0106,-0.01556
-4.7926e+00,-0.01012,-0.00628
-4.7849e+00,-0.01028,-0.01396
-4.7773e+00,-0.01052,-0.00548
-4.7696e+00,-0.01028,-0.01532
-4.7619e+00,-0.0098,-0.0066
-4.7542e+00,-0.0106,-0.01444
-4.7465e+00,-0.01036,-0.005
-4.7389e+00,-0.01052,-0.01548
-4.7312e+00,-0.01012,-0.0058
-4.7235e+00,-0.01036,-0.01508
-4.7158e+00,-0.01012,-0.00548
-4.7081e+00,-0.01036,-0.01684
-4.7005e+00,-0.011,-0.00524
-4.6928e+00,-0.01068,-0.01604
-4.6851e+00,-0.01044,-0.0062
-4.6774e+00,-0.01044,-0.01532
-4.6697e+00,-0.01068,-0.00812
-4.6621e+00,-0.0102,-0.01252
-4.6544e+00,-0.0106,-0.00764
-4.6467e+00,-0.01012,-0.01396
-4.6390e+00,-0.01092,-0.00604
-4.6313e+00,-0.0106,-0.01428
-4.6237e+00,-0.01012,-0.00556
-4.6160e+00,-0.01028,-0.01484
-4.6083e+00,-0.01036,-0.00612
-4.6006e+00,-0.01044,-0.01452
-4.5929e+00,-0.01004,-0.00684
-4.5853e+00,-0.01012,-0.0134
-4.5776e+00,-0.00972,-0.00748
-4.5699e+00,-0.0102,-0.01396
-4.5622e+00,-0.01084,-0.00724
-4.5545e+00,-0.01108,-0.01428
-4.5469e+00,-0.01052,-0.00796
-4.5392e+00,-0.01092,-0.01364
-4.5315e+00,-0.01132,-0.00852
-4.5238e+00,-0.01132,-0.01356
-4.5161e+00,-0.01076,-0.00788
-4.5084e+00,-0.01108,-0.01484
-4.5008e+00,-0.01132,-0.0062
-4.4931e+00,-0.01116,-0.01628
-4.4854e+00,-0.011,-0.00676
-4.4777e+00,-0.01076,-0.01508
-4.4700e+00,-0.01092,-0.009
-4.4624e+00,-0.01076,-0.01332
-4.4547e+00,-0.01052,-0.00668
-4.4470e+00,-0.01076,-0.01492
-4.4393e+00,-0.0114,-0.00788
-4.4316e+00,-0.01068,-0.01396
-4.4240e+00,-0.01084,-0.00676
-4.4163e+00,-0.01044,-0.01436
-4.4086e+00,-0.01052,-0.00604
-4.4009e+00,-0.01092,-0.01596
-4.3932e+00,-0.011,-0.00604
-4.3856e+00,-0.01068,-0.01588
-4.3779e+00,-0.01084,-0.00612
-4.3702e+00,-0.0114,-0.01572
-4.3625e+00,-0.01036,-0.0062
-4.3548e+00,-0.011,-0.015
-4.3472e+00,-0.01068,-0.00684
-4.3395e+00,-0.01076,-0.0142
-4.3318e+00,-0.011,-0.00548
-4.3241e+00,-0.01084,-0.01596
-4.3164e+00,-0.0106,-0.00772
-4.3088e+00,-0.01116,-0.01452
-4.3011e+00,-0.01068,-0.0066
-4.2934e+00,-0.01052,-0.01492
-4.2857e+00,-0.01044,-0.00652
-4.2780e+00,-0.01036,-0.01404
-4.2704e+00,-0.01084,-0.00452
-4.2627e+00,-0.01036,-0.01588
-4.2550e+00,-0.01076,-0.00412
-4.2473e+00,-0.01044,-0.01652
-4.2396e+00,-0.01004,-0.00564
-4.2320e+00,-0.00956,-0.01476
-4.2243e+00,-0.0102,-0.00484
-4.2166e+00,-0.01028,-0.0154
-4.2089e+00,-0.01028,-0.00652
-4.2012e+00,-0.01036,-0.01516
-4.1935e+00,-0.01148,-0.00428
-4.1859e+00,-0.01108,-0.01764
-4.1782e+00,-0.0106,-0.00596
-4.1705e+00,-0.01068,-0.01548
-4.1628e+00,-0.01028,-0.00812
-4.1551e+00,-0.01108,-0.01356
-4.1475e+00,-0.01012,-0.00548
-4.1398e+00,-0.01044,-0.0146
-4.1321e+00,-0.01052,-0.0074
-4.1244e+00,-0.01044,-0.01276
-4.1167e+00,-0.00996,-0.003
-4.1091e+00,-0.01028,-0.0166
-4.1014e+00,-0.00924,-0.00604
-4.0937e+00,-0.0094,-0.01252
-4.0860e+00,-0.0094,-0.00788
-4.0783e+00,-0.00924,-0.0106
-4.0707e+00,-0.00908,-0.00588
-4.0630e+00,-0.00876,-0.0126
-4.0553e+00,-0.0098,-0.00556
-4.0476e+00,-0.00948,-0.0126
-4.0399e+00,-0.00932,-0.00404
-4.0323e+00,-0.00868,-0.0138
-4.0246e+00,-0.00916,-0.00572
-4.0169e+00,-0.0094,-0.0122
-4.0092e+00,-0.00948,-0.00692
-4.0015e+00,-0.00948,-0.01252
-3.9939e+00,-0.00924,-0.00668
-3.9862e+00,-0.00948,-0.0122
-3.9785e+00,-0.00876,-0.00588
-3.9708e+00,-0.00948,-0.0134
-3.9631e+00,-0.00892,-0.00564
-3.9555e+00,-0.0086,-0.01212
-3.9478e+00,-0.00844,-0.0042
-3.9401e+00,-0.00884,-0.01372
-3.9324e+00,-0.0098,-0.00604
-3.9247e+00,-0.00932,-0.0126
-3.9171e+00,-0.00908,-0.0042
-3.9094e+00,-0.00916,-0.01444
-3.9017e+00,-0.00964,-0.00436
-3.8940e+00,-0.00876,-0.0134
-3.8863e+00,-0.009,-0.00708
-3.8786e+00,-0.00884,-0.01076
-3.8710e+00,-0.00908,-0.00628
-3.8633e+00,-0.00908,-0.01196
-3.8556e+00,-0.00924,-0.00444
-3.8479e+00,-0.00972,-0.0138
-3.8402e+00,-0.00932,-0.00468
-3.8326e+00,-0.00932,-0.0138
-3.8249e+00,-0.00948,-0.00556
-3.8172e+00,-0.00948,-0.01284
-3.8095e+00,-0.00948,-0.00756
-3.8018e+00,-0.0094,-0.01204
-3.7942e+00,-0.00948,-0.00444
-3.7865e+00,-0.00956,-0.0154
-3.7788e+00,-0.00932,-0.00276
-3.7711e+00,-0.009,-0.015
-3.7634e+00,-0.00892,-0.0038
-3.7558e+00,-0.00996,-0.01476
-3.7481e+00,-0.00948,-0.0054
-3.7404e+00,-0.00932,-0.01268
-3.7327e+00,-0.00892,-0.00516
-3.7250e+00,-0.00876,-0.01324
-3.7174e+00,-0.0086,-0.00524
-3.7097e+00,-0.009,-0.013
-3.7020e+00,-0.00844,-0.00732
-3.6943e+00,-0.00876,-0.00956
-3.6866e+00,-0.00828,-0.00564
-3.6790e+00,-0.00796,-0.01188
-3.6713e+00,-0.00844,-0.00396
-3.6636e+00,-0.00812,-0.01204
-3.6559e+00,-0.00788,-0.00428
-3.6482e+00,-0.00804,-0.01116
-3.6406e+00,-0.00836,-0.00468
-3.6329e+00,-0.00804,-0.011
-3.6252e+00,-0.00796,-0.00484
-3.6175e+00,-0.00804,-0.01204
-3.6098e+00,-0.0082,-0.00364
-3.6022e+00,-0.00796,-0.01212
-3.5945e+00,-0.00788,-0.0042
-3.5868e+00,-0.00828,-0.01156
-3.5791e+00,-0.00796,-0.0046
-3.5714e+00,-0.00852,-0.01148
-3.5637e+00,-0.00804,-0.00348
-3.5561e+00,-0.00788,-0.01148
-3.5484e+00,-0.00788,-0.00556
-3.5407e+00,-0.00756,-0.00972
-3.5330e+00,-0.00748,-0.0042
-3.5253e+00,-0.0074,-0.0114
-3.5177e+00,-0.00764,-0.00404
-3.5100e+00,-0.00732,-0.0102
-3.5023e+00,-0.00748,-0.00612
-3.4946e+00,-0.0074,-0.00868
-3.4869e+00,-0.00732,-0.00252
-3.4793e+00,-0.00804,-0.01252
-3.4716e+00,-0.00756,-0.00348
-3.4639e+00,-0.007,-0.01172
-3.4562e+00,-0.00732,-0.00156
-3.4485e+00,-0.00716,-0.013
-3.4409e+00,-0.00732,-0.00284
-3.4332e+00,-0.00676,-0.01068
-3.4255e+00,-0.00676,-0.00276
-3.4178e+00,-0.00652,-0.0106
-3.4101e+00,-0.00684,-0.00308
-3.4025e+00,-0.00748,-0.01164
-3.3948e+00,-0.00796,-0.00196
-3.3871e+00,-0.00724,-0.01324
-3.3794e+00,-0.00756,-0.00348
-3.3717e+00,-0.00724,-0.01084
-3.3641e+00,-0.00732,-0.00132
-3.3564e+00,-0.00676,-0.0126
-3.3487e+00,-0.00748,-0.00404
-3.3410e+00,-0.00684,-0.0106
-3.3333e+00,-0.00716,-0.00372
-3.3257e+00,-0.00676,-0.01084
-3.3180e+00,-0.00708,-0.00292
-3.3103e+00,-0.00668,-0.01052
-3.3026e+00,-0.00676,-0.00508
-3.2949e+00,-0.00676,-0.00836
-3.2873e+00,-0.0062,-0.0022
-3.2796e+00,-0.007,-0.01116
-3.2719e+00,-0.00628,-0.00372
-3.2642e+00,-0.00644,-0.00932
-3.2565e+00,-0.00652,-0.00228
-3.2488e+00,-0.00636,-0.01148
-3.2412e+00,-0.00628,-0.00244
-3.2335e+00,-0.0058,-0.01052
-3.2258e+00,-0.00628,-0.00228
-3.2181e+00,-0.0062,-0.01044
-3.2104e+00,-0.00588,-0.00204
-3.2028e+00,-0.00556,-0.00972
-3.1951e+00,-0.00548,-0.003
-3.1874e+00,-0.00572,-0.00868
-3.1797e+00,-0.00548,-0.00156
-3.1720e+00,-0.00596,-0.00876
-3.1644e+00,-0.005,-0.00196
-3.1567e+00,-0.00548,-0.00876
-3.1490e+00,-0.00564,-0.00108
-3.1413e+00,-0.00548,-0.01068
-3.1336e+00,-0.00612,-0.00228
-3.1260e+00,-0.00564,-0.00956
-3.1183e+00,-0.0062,-0.0022
-3.1106e+00,-0.00572,-0.009
-3.1029e+00,-0.00588,-0.0038
-3.0952e+00,-0.00564,-0.00764
-3.0876e+00,-0.0058,-0.001
-3.0799e+00,-0.00604,-0.01044
-3.0722e+00,-0.00612,-0.00252
-3.0645e+00,-0.00524,-0.00876
-3.0568e+00,-0.00564,-4e-05
-3.0492e+00,-0.00556,-0.01076
-3.0415e+00,-0.0054,-0.00076
-3.0338e+00,-0.00524,-0.01044
-3.0261e+00,-0.00556,-0.00132
-3.0184e+00,-0.00588,-0.01012
-3.0108e+00,-0.0054,-0.00332
-3.0031e+00,-0.00508,-0.00796
-2.9954e+00,-0.00524,-0.00244
-2.9877e+00,-0.00524,-0.0086
-2.9800e+00,-0.00508,0.0006
-2.9724e+00,-0.00508,-0.01028
-2.9647e+00,-0.00508,-0.00092
-2.9570e+00,-0.00524,-0.0094
-2.9493e+00,-0.0054,-0.00212
-2.9416e+00,-0.00516,-0.00748
-2.9339e+00,-0.00508,-0.0014
-2.9263e+00,-0.0046,-0.0082
-2.9186e+00,-0.005,-0.00188
-2.9109e+00,-0.00524,-0.00828
-2.9032e+00,-0.00452,0.00076
-2.8955e+00,-0.00468,-0.01044
-2.8879e+00,-0.00452,-0.00044
-2.8802e+00,-0.00492,-0.00916
-2.8725e+00,-0.00492,0.0006
-2.8648e+00,-0.00444,-0.01052
-2.8571e+00,-0.005,-0.00076
-2.8495e+00,-0.00436,-0.00868
-2.8418e+00,-0.00484,-0.00212
-2.8341e+00,-0.0046,-0.00716
-2.8264e+00,-0.0042,4e-05
-2.8187e+00,-0.0042,-0.00844
-2.8111e+00,-0.00452,-0.00012
-2.8034e+00,-0.00436,-0.00828
-2.7957e+00,-0.0042,-0.00084
-2.7880e+00,-0.00452,-0.00852
-2.7803e+00,-0.00444,-0.00012
-2.7727e+00,-0.005,-0.00796
-2.7650e+00,-0.00516,-0.00132
-2.7573e+00,-0.00492,-0.00764
-2.7496e+00,-0.00444,-0.00124
-2.7419e+00,-0.00436,-0.00788
-2.7343e+00,-0.00452,-0.001
-2.7266e+00,-0.00484,-0.00932
-2.7189e+00,-0.0046,-0.00356
-2.7112e+00,-0.00468,-0.0058
-2.7035e+00,-0.00444,0.00268
-2.6959e+00,-0.00452,-0.01228
-2.6882e+00,-0.00516,-0.0006
-2.6805e+00,-0.00476,-0.00844
-2.6728e+00,-0.00476,-0.00164
-2.6651e+00,-0.00412,-0.00732
-2.6575e+00,-0.00452,-0.00076
-2.6498e+00,-0.00372,-0.00756
-2.6421e+00,-0.00388,0.00012
-2.6344e+00,-0.0042,-0.00868
-2.6267e+00,-0.00388,0.00012
-2.6190e+00,-0.00364,-0.00876
-2.6114e+00,-0.00404,-0.0014
-2.6037e+00,-0.00436,-0.00748
-2.5960e+00,-0.00388,-0.00052
-2.5883e+00,-0.00452,-0.00724
-2.5806e+00,-0.0034,0.00148
-2.5730e+00,-0.00388,-0.00956
-2.5653e+00,-0.00364,0.00172
-2.5576e+00,-0.00388,-0.00844
-2.5499e+00,-0.00348,0.00132
-2.5422e+00,-0.0038,-0.00788
-2.5346e+00,-0.00332,0.00036
-2.5269e+00,-0.00332,-0.007
-2.5192e+00,-0.003,-0.00068
-2.5115e+00,-0.00324,-0.00676
-2.5038e+00,-0.00396,0.00148
-2.4962e+00,-0.00324,-0.00988
-2.4885e+00,-0.0038,0.00124
-2.4808e+00,-0.00316,-0.0086
-2.4731e+00,-0.00388,-0.00036
-2.4654e+00,-0.00348,-0.00652
-2.4578e+00,-0.00372,0.00036
-2.4501e+00,-0.0034,-0.0066
-2.4424e+00,-0.00308,0.00244
-2.4347e+00,-0.00332,-0.009
-2.4270e+00,-0.00364,-0.00028
-2.4194e+00,-0.00356,-0.00676
-2.4117e+00,-0.00372,-4e-05
-2.4040e+00,-0.00348,-0.0074
-2.3963e+00,-0.00348,-0.00068
-2.3886e+00,-0.0034,-0.00676
-2.3810e+00,-0.00332,0.00044
-2.3733e+00,-0.00348,-0.00764
-2.3656e+00,-0.00332,4e-05
-2.3579e+00,-0.0038,-0.00708
-2.3502e+00,-0.00356,0.00196
-2.3425e+00,-0.00308,-0.0082
-2.3349e+00,-0.00316,-0.00212
-2.3272e+00,-0.00356,-0.00476
-2.3195e+00,-0.00356,0.00028
-2.3118e+00,-0.00388,-0.00708
-2.3041e+00,-0.00364,-0.00044
-2.2965e+00,-0.00412,-0.00668
-2.2888e+00,-0.0038,-0.0002
-2.2811e+00,-0.00388,-0.00708
-2.2734e+00,-0.00364,4e-05
-2.2657e+00,-0.00348,-0.00716
-2.2581e+00,-0.00388,4e-05
-2.2504e+00,-0.00348,-0.00764
-2.2427e+00,-0.00364,0.00076
-2.2350e+00,-0.00372,-0.00812
-2.2273e+00,-0.00404,-0.00068
-2.2197e+00,-0.00332,-0.00692
-2.2120e+00,-0.00284,-0.00028
-2.2043e+00,-0.0034,-0.00596
-2.1966e+00,-0.00324,0.00052
-2.1889e+00,-0.00324,-0.0078
-2.1813e+00,-0.00308,0.0018
-2.1736e+00,-0.00316,-0.0082
-2.1659e+00,-0.00332,0.0026
-2.1582e+00,-0.00316,-0.00788
-2.1505e+00,-0.0026,0.00132
-2.1429e+00,-0.00316,-0.00732
-2.1352e+00,-0.00276,-0.00156
-2.1275e+00,-0.00308,-0.00412
-2.1198e+00,-0.003,0.00268
-2.1121e+00,-0.003,-0.00908
-2.1045e+00,-0.0034,0.0022
-2.0968e+00,-0.00292,-0.0086
-2.0891e+00,-0.00316,0.00124
-2.0814e+00,-0.00348,-0.00764
-2.0737e+00,-0.00372,-0.00068
-2.0661e+00,-0.00348,-0.00588
-2.0584e+00,-0.00356,0.00052
-2.0507e+00,-0.00372,-0.00804
-2.0430e+00,-0.00348,0.00236
-2.0353e+00,-0.00324,-0.00836
-2.0276e+00,-0.00356,0.00052
-2.0200e+00,-0.0038,-0.00788
-2.0123e+00,-0.0038,-4e-05
-2.0046e+00,-0.00324,-0.00716
-1.9969e+00,-0.00388,0.00084
-1.9892e+00,-0.0034,-0.00708
-1.9816e+00,-0.00316,-0.00132
-1.9739e+00,-0.00332,-0.00564
-1.9662e+00,-0.003,0.00132
-1.9585e+00,-0.00284,-0.00724
-1.9508e+00,-0.00308,-0.00012
-1.9432e+00,-0.00364,-0.00708
-1.9355e+00,-0.00316,-0.00084
-1.9278e+00,-0.00388,-0.00604
-1.9201e+00,-0.00356,0.001
-1.9124e+00,-0.00372,-0.0078
-1.9048e+00,-0.0042,0.00156
-1.8971e+00,-0.00348,-0.0082
-1.8894e+00,-0.00332,0.0022
-1.8817e+00,-0.0038,-0.00916
-1.8740e+00,-0.00348,4e-05
-1.8664e+00,-0.00356,-0.00612
-1.8587e+00,-0.00316,0.00252
-1.8510e+00,-0.00348,-0.009
-1.8433e+00,-0.0034,-0.00084
-1.8356e+00,-0.00316,-0.00628
-1.8280e+00,-0.00316,0.00196
-1.8203e+00,-0.0038,-0.00964
-1.8126e+00,-0.00316,0.00052
-1.8049e+00,-0.00332,-0.00708
-1.7972e+00,-0.00284,0.00116
-1.7896e+00,-0.00276,-0.00732
-1.7819e+00,-0.00292,0.0002
-1.7742e+00,-0.00276,-0.00604
-1.7665e+00,-0.00284,0.0018
-1.7588e+00,-0.00284,-0.00804
-1.7512e+00,-0.00284,-0.00052
-1.7435e+00,-0.00276,-0.00564
-1.7358e+00,-0.00244,0.00108
-1.7281e+00,-0.00316,-0.00684
-1.7204e+00,-0.00284,0.00148
-1.7127e+00,-0.003,-0.00668
-1.7051e+00,-0.00364,0.0002
-1.6974e+00,-0.00364,-0.00708
-1.6897e+00,-0.00332,0.00204
-1.6820e+00,-0.00356,-0.0094
-1.6743e+00,-0.00348,0.00212
-1.6667e+00,-0.00316,-0.00932
-1.6590e+00,-0.003,-0.00036
-1.6513e+00,-0.0034,-0.00668
-1.6436e+00,-0.00292,-0.00012
-1.6359e+00,-0.00316,-0.007
-1.6283e+00,-0.00348,0.00084
-1.6206e+00,-0.00348,-0.00812
-1.6129e+00,-0.00324,-0.00052
-1.6052e+00,-0.0038,-0.00668
-1.5975e+00,-0.00436,-0.00148
-1.5899e+00,-0.0038,-0.00636
-1.5822e+00,-0.00388,-0.00084
-1.5745e+00,-0.0038,-0.00716
-1.5668e+00,-0.00364,-0.00052
-1.5591e+00,-0.00396,-0.00708
-1.5515e+00,-0.0038,-0.00276
-1.5438e+00,-0.00396,-0.00508
-1.5361e+00,-0.00372,-0.00076
-1.5284e+00,-0.00412,-0.007
-1.5207e+00,-0.0038,4e-05
-1.5131e+00,-0.00324,-0.00676
-1.5054e+00,-0.00372,0.00084
-1.4977e+00,-0.00308,-0.00796
-1.4900e+00,-0.00364,0.00124
-1.4823e+00,-0.00364,-0.00844
-1.4747e+00,-0.0034,0.00092
-1.4670e+00,-0.00316,-0.00796
-1.4593e+00,-0.0038,-0.00052
-1.4516e+00,-0.00356,-0.00732
-1.4439e+00,-0.00364,-0.00156
-1.4363e+00,-0.00396,-0.00644
-1.4286e+00,-0.00412,-0.00116
-1.4209e+00,-0.00444,-0.00756
-1.4132e+00,-0.0034,-0.00148
-1.4055e+00,-0.00356,-0.007
-1.3978e+00,-0.0042,0.00044
-1.3902e+00,-0.00396,-0.00804
-1.3825e+00,-0.00404,0.00204
-1.3748e+00,-0.00364,-0.00932
-1.3671e+00,-0.00372,-0.00212
-1.3594e+00,-0.00436,-0.00668
-1.3518e+00,-0.00428,-0.00252
-1.3441e+00,-0.00428,-0.00588
-1.3364e+00,-0.00452,-0.00124
-1.3287e+00,-0.00468,-0.00812
-1.3210e+00,-0.00516,-0.0006
-1.3134e+00,-0.00468,-0.00852
-1.3057e+00,-0.00452,0.0002
-1.2980e+00,-0.0046,-0.00828
-1.2903e+00,-0.00436,0.00028
-1.2826e+00,-0.00396,-0.00804
-1.2750e+00,-0.00396,-0.00028
-1.2673e+00,-0.00388,-0.0078
-1.2596e+00,-0.00428,0.00044
-1.2519e+00,-0.00348,-0.00756
-1.2442e+00,-0.00388,0.00148
-1.2366e+00,-0.00412,-0.00972
-1.2289e+00,-0.00388,-0.00076
-1.2212e+00,-0.00468,-0.00828
-1.2135e+00,-0.0042,-0.00044
-1.2058e+00,-0.00412,-0.00836
-1.1982e+00,-0.00428,-0.00028
-1.1905e+00,-0.00428,-0.00844
-1.1828e+00,-0.0046,0.00012
-1.1751e+00,-0.00452,-0.009
-1.1674e+00,-0.00452,0.00036
-1.1598e+00,-0.00428,-0.00908
-1.1521e+00,-0.00428,-0.00172
-1.1444e+00,-0.00468,-0.0082
-1.1367e+00,-0.00508,-0.0018
-1.1290e+00,-0.00452,-0.00796
-1.1214e+00,-0.00452,-0.00172
-1.1137e+00,-0.00516,-0.0082
-1.1060e+00,-0.00476,0.00044
-1.0983e+00,-0.00476,-0.00972
-1.0906e+00,-0.00452,-0.0006
-1.0829e+00,-0.00452,-0.00924
-1.0753e+00,-0.00492,0.00036
-1.0676e+00,-0.00524,-0.01028
-1.0599e+00,-0.00556,-0.0026
-1.0522e+00,-0.00524,-0.00852
-1.0445e+00,-0.00548,-0.00044
-1.0369e+00,-0.00596,-0.01084
-1.0292e+00,-0.00508,-0.00068
-1.0215e+00,-0.00516,-0.00948
-1.0138e+00,-0.00468,-0.0002
-1.0061e+00,-0.00484,-0.00972
-9.9846e-01,-0.00532,-0.0022
-9.9078e-01,-0.00484,-0.00836
-9.8310e-01,-0.00532,-0.0002
-9.7542e-01,-0.00524,-0.01036
-9.6774e-01,-0.00524,-0.0034
-9.6006e-01,-0.00532,-0.00756
-9.5238e-01,-0.005,-0.0022
-9.4470e-01,-0.00564,-0.00868
-9.3702e-01,-0.00556,-0.00052
-9.2934e-01,-0.0062,-0.0094
-9.2166e-01,-0.00548,-0.00148
-9.1398e-01,-0.00516,-0.00956
-9.0630e-01,-0.00532,0.0006
-8.9862e-01,-0.00556,-0.00996
-8.9094e-01,-0.00484,-0.00196
-8.8326e-01,-0.00532,-0.00868
-8.7558e-01,-0.005,-4e-05
-8.6790e-01,-0.00484,-0.00948
-8.6022e-01,-0.00484,-0.00124
-8.5253e-01,-0.00532,-0.00884
-8.4485e-01,-0.00508,-0.00084
-8.3717e-01,-0.00524,-0.00924
-8.2949e-01,-0.00548,-0.00092
-8.2181e-01,-0.00548,-0.00932
-8.1413e-01,-0.00524,-0.0006
-8.0645e-01,-0.00476,-0.00924
-7.9877e-01,-0.00476,-0.00052
-7.9109e-01,-0.005,-0.00916
-7.8341e-01,-0.0046,-0.00084
-7.7573e-01,-0.00452,-0.00884
-7.6805e-01,-0.00468,-0.0018
-7.6037e-01,-0.00468,-0.00716
-7.5269e-01,-0.00492,-0.00164
-7.4501e-01,-0.00492,-0.0078
-7.3733e-01,-0.00484,0.00036
-7.2965e-01,-0.00436,-0.00996
-7.2197e-01,-0.00444,0.00268
-7.1429e-01,-0.0042,-0.0114
-7.0661e-01,-0.00452,-0.00076
-6.9892e-01,-0.00468,-0.00812
-6.9124e-01,-0.00452,0.00084
-6.8356e-01,-0.00484,-0.00996
-6.7588e-01,-0.00468,-0.0018
-6.6820e-01,-0.00476,-0.00812
-6.6052e-01,-0.00484,0.00044
-6.5284e-01,-0.00476,-0.0098
-6.4516e-01,-0.00452,-0.00148
-6.3748e-01,-0.00524,-0.00916
-6.2980e-01,-0.00524,-0.00116
-6.2212e-01,-0.00524,-0.00884
-6.1444e-01,-0.0054,-0.00156
-6.0676e-01,-0.00524,-0.009
-5.9908e-01,-0.00492,-0.0018
-5.9140e-01,-0.00548,-0.00796
-5.8372e-01,-0.00444,-0.00028
-5.7604e-01,-0.00532,-0.01068
-5.6836e-01,-0.00532,-0.00252
-5.6068e-01,-0.00532,-0.0078
-5.5300e-01,-0.00532,-0.0014
-5.4531e-01,-0.0054,-0.00948
-5.3763e-01,-0.00516,-0.00244
-5.2995e-01,-0.00492,-0.00876
-5.2227e-01,-0.00484,-0.00236
-5.1459e-01,-0.00596,-0.00884
-5.0691e-01,-0.00612,-0.00068
-4.9923e-01,-0.00588,-0.01092
-4.9155e-01,-0.00548,-0.00084
-4.8387e-01,-0.0054,-0.0102
-4.7619e-01,-0.00572,-0.0018
-4.6851e-01,-0.00588,-0.01036
-4.6083e-01,-0.00604,4e-05
-4.5315e-01,-0.00572,-0.011
-4.4547e-01,-0.00564,-0.00316
-4.3779e-01,-0.00596,-0.00788
-4.3011e-01,-0.00572,-0.0018
-4.2243e-01,-0.00596,-0.01036
-4.1475e-01,-0.00572,-0.0026
-4.0707e-01,-0.0058,-0.00964
-3.9939e-01,-0.00612,-0.00196
-3.9171e-01,-0.00644,-0.011
-3.8402e-01,-0.00604,-0.00292
-3.7634e-01,-0.00612,-0.0094
-3.6866e-01,-0.00652,-0.00052
-3.6098e-01,-0.00628,-0.01236
-3.5330e-01,-0.00644,-0.00332
-3.4562e-01,-0.00628,-0.01004
-3.3794e-01,-0.00644,-0.00132
-3.3026e-01,-0.0066,-0.01116
-3.2258e-01,-0.00644,-0.0034
-3.1490e-01,-0.00644,-0.00916
-3.0722e-01,-0.00628,-0.00316
-2.9954e-01,-0.0066,-0.00964
-2.9186e-01,-0.00628,-0.001
-2.8418e-01,-0.0058,-0.01068
-2.7650e-01,-0.0058,-0.00268
-2.6882e-01,-0.00588,-0.009
-2.6114e-01,-0.00572,-0.00244
-2.5346e-01,-0.00588,-0.009
-2.4578e-01,-0.00524,-0.00132
-2.3810e-01,-0.00548,-0.00988
-2.3041e-01,-0.00532,-0.00276
-2.2273e-01,-0.00484,-0.00852
-2.1505e-01,-0.005,-0.00068
-2.0737e-01,-0.00508,-0.01012
-1.9969e-01,-0.00556,-0.00308
-1.9201e-01,-0.00556,-0.00924
-1.8433e-01,-0.00612,-0.003
-1.7665e-01,-0.00636,-0.009
-1.6897e-01,-0.00628,-0.00396
-1.6129e-01,-0.00612,-0.00852
-1.5361e-01,-0.00684,-0.0034
-1.4593e-01,-0.0066,-0.00956
-1.3825e-01,-0.0062,-0.00084
-1.3057e-01,-0.00652,-0.01188
-1.2289e-01,-0.00652,-0.00372
-1.1521e-01,-0.00636,-0.00972
-1.0753e-01,-0.00628,-0.0018
-9.9846e-02,-0.00668,-0.01116
-9.2166e-02,-0.00668,-0.00268
-8.4485e-02,-0.00612,-0.0106
-7.6805e-02,-0.0062,-0.00324
-6.9124e-02,-0.00692,-0.0098
-6.1444e-02,-0.00652,-0.00356
-5.3763e-02,-0.007,-0.01044
-4.6083e-02,-0.00676,-0.00268
-3.8402e-02,-0.00684,-0.011
-3.0722e-02,-0.00676,-0.00244
-2.3041e-02,-0.00668,-0.01068
-1.5361e-02,-0.00628,-0.0026
-7.6805e-03,-0.00668,-0.01044
-1.7007e-13,-0.0066,-0.00156
7.6805e-03,-0.00684,-0.01156
1.5361e-02,-0.00676,-0.00452
2.3041e-02,-0.00708,-0.00916
3.0722e-02,-0.00684,-0.00268
3.8402e-02,-0.00692,-0.0114
4.6083e-02,-0.00716,0.00172
5.3763e-02,-0.00676,-0.01492
6.1444e-02,-0.00684,-0.0006
6.9124e-02,-0.0066,-0.013
7.6805e-02,-0.00692,-0.00212
8.4485e-02,-0.00644,-0.0114
9.2166e-02,-0.00692,-0.00356
9.9846e-02,-0.00708,-0.01068
1.0753e-01,-0.00692,-0.00284
1.1521e-01,-0.00748,-0.01132
1.2289e-01,-0.00764,-0.00452
1.3057e-01,-0.00732,-0.00996
1.3825e-01,-0.00732,-0.00324
1.4593e-01,-0.007,-0.01132
1.5361e-01,-0.00748,-0.0014
1.6129e-01,-0.0074,-0.01228
1.6897e-01,-0.00724,-0.00292
1.7665e-01,-0.00708,-0.01108
1.8433e-01,-0.00684,-0.00316
1.9201e-01,-0.007,-0.01116
1.9969e-01,-0.00732,-0.0038
2.0737e-01,-0.007,-0.011
2.1505e-01,-0.00764,-0.00292
2.2273e-01,-0.00724,-0.01228
2.3041e-01,-0.00748,-0.00244
2.3810e-01,-0.00708,-0.01196
2.4578e-01,-0.00764,-0.00356
2.5346e-01,-0.00732,-0.01132
2.6114e-01,-0.00692,-0.00364
2.6882e-01,-0.00708,-0.01044
2.7650e-01,-0.00716,-0.00172
2.8418e-01,-0.00756,-0.013
2.9186e-01,-0.007,-0.00244
2.9954e-01,-0.007,-0.01172
3.0722e-01,-0.00716,-0.00196
3.1490e-01,-0.0074,-0.01292
3.2258e-01,-0.00724,-0.00212
3.3026e-01,-0.00788,-0.013
3.3794e-01,-0.00772,-0.0042
3.4562e-01,-0.00764,-0.01116
3.5330e-01,-0.00764,-0.00204
3.6098e-01,-0.00772,-0.01244
3.6866e-01,-0.007,-0.00188
3.7634e-01,-0.00724,-0.01276
3.8402e-01,-0.00692,-0.00316
3.9171e-01,-0.0074,-0.01148
3.9939e-01,-0.0074,-0.0062
4.0707e-01,-0.00748,-0.0086
4.1475e-01,-0.00692,-0.00156
4.2243e-01,-0.00708,-0.0138
4.3011e-01,-0.00692,-0.00188
4.3779e-01,-0.00692,-0.01164
4.4547e-01,-0.00692,-0.00228
4.5315e-01,-0.0074,-0.01204
4.6083e-01,-0.00772,-0.00444
4.6851e-01,-0.00772,-0.011
4.7619e-01,-0.00772,-0.00308
4.8387e-01,-0.00748,-0.01196
4.9155e-01,-0.00796,-0.003
4.9923e-01,-0.00804,-0.01244
5.0691e-01,-0.00764,-0.00396
5.1459e-01,-0.00804,-0.01196
5.2227e-01,-0.0078,-0.00268
5.2995e-01,-0.00804,-0.01292
5.3763e-01,-0.00764,-0.00452
5.4531e-01,-0.00812,-0.01124
5.5300e-01,-0.0078,-0.00492
5.6068e-01,-0.00772,-0.0102
5.6836e-01,-0.007,-0.00252
5.7604e-01,-0.00692,-0.01148
5.8372e-01,-0.00692,-0.00212
5.9140e-01,-0.00668,-0.01204
5.9908e-01,-0.00716,-0.00588
6.0676e-01,-0.00692,-0.00812
6.1444e-01,-0.00684,-0.003
6.2212e-01,-0.00676,-0.0114
6.2980e-01,-0.007,-0.00364
6.3748e-01,-0.00708,-0.01044
6.4516e-01,-0.00692,-0.0018
6.5284e-01,-0.00692,-0.01276
6.6052e-01,-0.00692,-0.00292
6.6820e-01,-0.00724,-0.0114
6.7588e-01,-0.00732,-0.00052
6.8356e-01,-0.00756,-0.01292
6.9124e-01,-0.00788,-0.00372
6.9892e-01,-0.0078,-0.0118
7.0661e-01,-0.00804,-0.003
7.1429e-01,-0.00748,-0.01268
7.2197e-01,-0.00788,-0.0042
7.2965e-01,-0.00724,-0.011
7.3733e-01,-0.007,-0.00348
7.4501e-01,-0.00716,-0.0106
7.5269e-01,-0.00724,-0.00148
7.6037e-01,-0.00732,-0.01356
7.6805e-01,-0.0074,-0.00236
7.7573e-01,-0.00748,-0.01308
7.8341e-01,-0.0074,-0.0026
7.9109e-01,-0.0074,-0.01372
7.9877e-01,-0.00804,-0.00572
8.0645e-01,-0.00836,-0.01068
8.1413e-01,-0.00844,-0.00484
8.2181e-01,-0.00812,-0.01116
8.2949e-01,-0.00804,-0.0038
8.3717e-01,-0.00788,-0.01228
8.4485e-01,-0.00804,-0.00236
8.5253e-01,-0.00764,-0.01324
8.6022e-01,-0.0074,-0.00356
8.6790e-01,-0.00724,-0.01116
8.7558e-01,-0.00732,-0.00452
8.8326e-01,-0.00724,-0.01004
8.9094e-01,-0.00772,-0.00324
8.9862e-01,-0.00748,-0.01172
9.0630e-01,-0.00772,-0.00188
9.1398e-01,-0.00788,-0.01268
9.2166e-01,-0.00804,-0.0038
9.2934e-01,-0.00764,-0.01228
9.3702e-01,-0.00732,-0.00172
9.4470e-01,-0.0074,-0.01236
9.5238e-01,-0.00764,-0.00468
9.6006e-01,-0.00732,-0.00988
9.6774e-01,-0.00724,-0.00268
9.7542e-01,-0.00692,-0.01164
9.8310e-01,-0.00684,-0.0042
9.9078e-01,-0.00708,-0.01012
9.9846e-01,-0.00692,-0.00196
1.0061e+00,-0.00708,-0.0126
1.0138e+00,-0.00732,-0.00276
1.0215e+00,-0.00732,-0.01244
1.0292e+00,-0.00756,-0.00132
1.0369e+00,-0.00756,-0.01284
1.0445e+00,-0.00708,-0.00356
1.0522e+00,-0.00716,-0.01052
1.0599e+00,-0.007,-0.0022
1.0676e+00,-0.00732,-0.01156
1.0753e+00,-0.00692,-0.00348
1.0829e+00,-0.00764,-0.01068
1.0906e+00,-0.0074,-0.00212
1.0983e+00,-0.00764,-0.01276
1.1060e+00,-0.007,-0.00396
1.1137e+00,-0.00716,-0.01028
1.1214e+00,-0.00708,-0.00164
1.1290e+00,-0.00692,-0.01308
1.1367e+00,-0.00708,-0.00284
1.1444e+00,-0.00668,-0.01028
1.1521e+00,-0.00644,0.00124
1.1598e+00,-0.00644,-0.01316
1.1674e+00,-0.0066,-0.0022
1.1751e+00,-0.007,-0.0122
1.1828e+00,-0.00708,-0.00476
1.1905e+00,-0.00724,-0.01012
1.1982e+00,-0.00772,-0.00412
1.2058e+00,-0.00772,-0.01108
1.2135e+00,-0.00692,-0.00156
1.2212e+00,-0.00724,-0.0126
1.2289e+00,-0.00692,-0.003
1.2366e+00,-0.00788,-0.01156
1.2442e+00,-0.007,-0.00388
1.2519e+00,-0.00708,-0.01108
1.2596e+00,-0.00684,-0.00316
1.2673e+00,-0.00724,-0.01108
1.2750e+00,-0.00748,-0.0034
1.2826e+00,-0.007,-0.01084
1.2903e+00,-0.00708,-0.00324
1.2980e+00,-0.00764,-0.01196
1.3057e+00,-0.00724,-0.0018
1.3134e+00,-0.00708,-0.01292
1.3210e+00,-0.00748,-0.00284
1.3287e+00,-0.00708,-0.01116
1.3364e+00,-0.007,-0.00292
1.3441e+00,-0.007,-0.0122
1.3518e+00,-0.00716,-0.00428
1.3594e+00,-0.00724,-0.01068
1.3671e+00,-0.00732,-0.00204
1.3748e+00,-0.00676,-0.01332
1.3825e+00,-0.00716,-0.00372
1.3902e+00,-0.00724,-0.01004
1.3978e+00,-0.00732,-0.00476
1.4055e+00,-0.00716,-0.00996
1.4132e+00,-0.0078,-0.0018
1.4209e+00,-0.00748,-0.01276
1.4286e+00,-0.00796,-0.00348
1.4363e+00,-0.00708,-0.0114
1.4439e+00,-0.0074,-0.0014
1.4516e+00,-0.00748,-0.01332
1.4593e+00,-0.00724,-0.00308
1.4670e+00,-0.00756,-0.01252
1.4747e+00,-0.00756,-0.00396
1.4823e+00,-0.00804,-0.01244
1.4900e+00,-0.00788,-0.0046
1.4977e+00,-0.00828,-0.01092
1.5054e+00,-0.00788,-0.00332
1.5131e+00,-0.00724,-0.01068
1.5207e+00,-0.00676,-0.00348
1.5284e+00,-0.0074,-0.01092
1.5361e+00,-0.00732,-0.00332
1.5438e+00,-0.00772,-0.01084
1.5515e+00,-0.00756,-0.00364
1.5591e+00,-0.00716,-0.0102
1.5668e+00,-0.00756,-0.00356
1.5745e+00,-0.00732,-0.01028
1.5822e+00,-0.00724,-0.00212
1.5899e+00,-0.00724,-0.01268
1.5975e+00,-0.007,-0.00276
1.6052e+00,-0.00732,-0.01188
1.6129e+00,-0.00732,0.00028
1.6206e+00,-0.00676,-0.01356
1.6283e+00,-0.00676,-0.00284
1.6359e+00,-0.00724,-0.01036
1.6436e+00,-0.00628,-0.00372
1.6513e+00,-0.00676,-0.00876
1.6590e+00,-0.00588,-0.001
1.6667e+00,-0.00628,-0.01132
1.6743e+00,-0.00636,-0.00116
1.6820e+00,-0.00668,-0.01212
1.6897e+00,-0.0066,-0.00292
1.6974e+00,-0.00652,-0.0098
1.7051e+00,-0.00644,-0.00188
1.7127e+00,-0.00652,-0.01132
1.7204e+00,-0.00612,-0.00284
1.7281e+00,-0.00612,-0.00956
1.7358e+00,-0.0058,-0.00076
1.7435e+00,-0.00612,-0.01052
1.7512e+00,-0.00532,-0.00244
1.7588e+00,-0.00604,-0.00908
1.7665e+00,-0.00508,-0.00228
1.7742e+00,-0.00588,-0.00964
1.7819e+00,-0.00588,-0.0018
1.7896e+00,-0.00596,-0.01012
1.7972e+00,-0.00628,-0.0022
1.8049e+00,-0.00612,-0.00948
1.8126e+00,-0.0066,-0.0018
1.8203e+00,-0.00636,-0.01036
1.8280e+00,-0.00588,-0.00036
1.8356e+00,-0.00588,-0.01108
1.8433e+00,-0.0058,-0.00044
1.8510e+00,-0.00604,-0.011
1.8587e+00,-0.00628,-0.00252
1.8664e+00,-0.00652,-0.00956
1.8740e+00,-0.00612,-0.00172
1.8817e+00,-0.00652,-0.01052
1.8894e+00,-0.00596,-0.0006
1.8971e+00,-0.00604,-0.01084
1.9048e+00,-0.0058,-0.00124
1.9124e+00,-0.00604,-0.01028
1.9201e+00,-0.00572,-0.00292
1.9278e+00,-0.00596,-0.00932
1.9355e+00,-0.00588,-0.00252
1.9432e+00,-0.0062,-0.00836
1.9508e+00,-0.00588,-0.00148
1.9585e+00,-0.00596,-0.01116
1.9662e+00,-0.0058,-0.00348
1.9739e+00,-0.00596,-0.00836
1.9816e+00,-0.00588,-0.00316
1.9892e+00,-0.00604,-0.00868
1.9969e+00,-0.00628,-0.00188
2.0046e+00,-0.00572,-0.01052
2.0123e+00,-0.00596,-0.00188
2.0200e+00,-0.00588,-0.01028
2.0276e+00,-0.00572,-0.00348
2.0353e+00,-0.00556,-0.00844
2.0430e+00,-0.00564,-0.0014
2.0507e+00,-0.00572,-0.00996
2.0584e+00,-0.00564,-0.00268
2.0661e+00,-0.0054,-0.00812
2.0737e+00,-0.00524,0.0002
2.0814e+00,-0.0054,-0.01052
2.0891e+00,-0.00556,-0.00052
2.0968e+00,-0.00564,-0.01036
2.1045e+00,-0.00492,-0.00164
2.1121e+00,-0.00476,-0.00932
2.1198e+00,-0.00532,4e-05
2.1275e+00,-0.00516,-0.00988
2.1352e+00,-0.00516,-0.001
2.1429e+00,-0.00452,-0.00836
2.1505e+00,-0.00492,-0.00396
2.1582e+00,-0.00556,-0.00636
2.1659e+00,-0.00524,-0.00276
2.1736e+00,-0.005,-0.00788
2.1813e+00,-0.0054,-0.00188
2.1889e+00,-0.00572,-0.00868
2.1966e+00,-0.00548,-0.00244
2.2043e+00,-0.005,-0.00812
2.2120e+00,-0.00564,-0.00132
2.2197e+00,-0.00524,-0.0086
2.2273e+00,-0.0054,-0.00156
2.2350e+00,-0.00484,-0.00828
2.2427e+00,-0.00468,0.0006
2.2504e+00,-0.00468,-0.00996
2.2581e+00,-0.00468,-0.00132
2.2657e+00,-0.0046,-0.00804
2.2734e+00,-0.00436,-0.0018
2.2811e+00,-0.0046,-0.00764
2.2888e+00,-0.00468,-0.0014
2.2965e+00,-0.00468,-0.00772
2.3041e+00,-0.00436,-0.00012
2.3118e+00,-0.0046,-0.00828
2.3195e+00,-0.00444,0.00164
2.3272e+00,-0.00428,-0.00988
2.3349e+00,-0.00436,0.00108
2.3425e+00,-0.00452,-0.00916
2.3502e+00,-0.0042,-0.00308
2.3579e+00,-0.0042,-0.00532
2.3656e+00,-0.00372,-0.001
2.3733e+00,-0.00412,-0.00748
2.3810e+00,-0.0046,-0.00068
2.3886e+00,-0.00436,-0.00748
2.3963e+00,-0.00436,0.00052
2.4040e+00,-0.0042,-0.00908
2.4117e+00,-0.00388,0.0006
2.4194e+00,-0.00372,-0.0082
2.4270e+00,-0.00372,-0.0006
2.4347e+00,-0.00396,-0.00756
2.4424e+00,-0.00412,0.00036
2.4501e+00,-0.0046,-0.00972
2.4578e+00,-0.0046,-0.00116
2.4654e+00,-0.00468,-0.00868
2.4731e+00,-0.00484,-0.00092
2.4808e+00,-0.00444,-0.00796
2.4885e+00,-0.00444,-0.00092
2.4962e+00,-0.00444,-0.00724
2.5038e+00,-0.00412,0.00052
2.5115e+00,-0.0042,-0.0098
2.5192e+00,-0.0042,-0.00012
2.5269e+00,-0.00428,-0.00796
2.5346e+00,-0.00468,-0.00068
2.5422e+00,-0.00388,-0.00828
2.5499e+00,-0.00436,0.00076
2.5576e+00,-0.00444,-0.00924
2.5653e+00,-0.00444,0.00132
2.5730e+00,-0.00436,-0.00908
2.5806e+00,-0.00404,-0.00132
2.5883e+00,-0.0038,-0.00612
2.5960e+00,-0.0038,-0.00108
2.6037e+00,-0.00396,-0.00676
2.6114e+00,-0.00348,0.00196
2.6190e+00,-0.00332,-0.00892
2.6267e+00,-0.0034,-0.00044
2.6344e+00,-0.00364,-0.00676
2.6421e+00,-0.0034,0.0002
2.6498e+00,-0.00356,-0.007
2.6575e+00,-0.00332,0.00028
2.6651e+00,-0.00356,-0.00684
2.6728e+00,-0.0038,-0.0002
2.6805e+00,-0.0038,-0.007
2.6882e+00,-0.00324,0.0018
2.6959e+00,-0.0034,-0.00876
2.7035e+00,-0.00356,-0.00028
2.7112e+00,-0.00348,-0.00708
2.7189e+00,-0.003,0.00196
2.7266e+00,-0.00364,-0.00908
2.7343e+00,-0.00348,0.00076
2.7419e+00,-0.00364,-0.00748
2.7496e+00,-0.00412,-0.00068
2.7573e+00,-0.0034,-0.00612
2.7650e+00,-0.00324,0.0014
2.7727e+00,-0.00316,-0.0082
2.7803e+00,-0.00364,0.00268
2.7880e+00,-0.00348,-0.00956
2.7957e+00,-0.00324,-0.0002
2.8034e+00,-0.003,-0.00652
2.8111e+00,-0.00332,0.00268
2.8187e+00,-0.00268,-0.01084
2.8264e+00,-0.0038,4e-05
2.8341e+00,-0.00348,-0.00628
2.8418e+00,-0.00292,0.0006
2.8495e+00,-0.00324,-0.00684
2.8571e+00,-0.0034,-4e-05
2.8648e+00,-0.00316,-0.00756
2.8725e+00,-0.00356,-4e-05
2.8802e+00,-0.0034,-0.00636
2.8879e+00,-0.00308,0.00084
2.8955e+00,-0.00284,-0.00748
2.9032e+00,-0.00332,0.00268
2.9109e+00,-0.00332,-0.00916
2.9186e+00,-0.00252,-0.0002
2.9263e+00,-0.00332,-0.00644
2.9339e+00,-0.00252,0.00012
2.9416e+00,-0.00316,-0.00588
2.9493e+00,-0.00284,0.00044
2.9570e+00,-0.00284,-0.00748
2.9647e+00,-0.00356,0.00164
2.9724e+00,-0.00348,-0.00804
2.9800e+00,-0.00308,-0.00012
2.9877e+00,-0.00316,-0.0074
2.9954e+00,-0.00348,-0.00012
3.0031e+00,-0.00292,-0.00676
3.0108e+00,-0.00332,-0.00084
3.0184e+00,-0.00308,-0.00588
3.0261e+00,-0.00356,0.00092
3.0338e+00,-0.0038,-0.00756
3.0415e+00,-0.00412,0.00108
3.0492e+00,-0.00364,-0.00852
3.0568e+00,-0.00332,0.00052
3.0645e+00,-0.00332,-0.0066
3.0722e+00,-0.0034,0.00044
3.0799e+00,-0.003,-0.00676
3.0876e+00,-0.00308,0.0018
3.0952e+00,-0.00276,-0.00788
3.1029e+00,-0.00332,0.00132
3.1106e+00,-0.00268,-0.0066
3.1183e+00,-0.00268,0.00172
3.1260e+00,-0.00292,-0.007
3.1336e+00,-0.00276,0.00084
3.1413e+00,-0.0026,-0.00572
3.1490e+00,-0.0034,0.00052
3.1567e+00,-0.00276,-0.0066
3.1644e+00,-0.00316,0.00052
3.1720e+00,-0.00332,-0.00596
3.1797e+00,-0.00292,0.00244
3.1874e+00,-0.0034,-0.00852
3.1951e+00,-0.0034,0.00132
3.2028e+00,-0.00348,-0.00708
3.2104e+00,-0.00332,-0.0002
3.2181e+00,-0.00284,-0.00644
3.2258e+00,-0.003,0.00028
3.2335e+00,-0.00332,-0.00772
3.2412e+00,-0.00316,-0.0002
3.2488e+00,-0.00308,-0.00636
3.2565e+00,-0.00324,0.00012
3.2642e+00,-0.00388,-0.0074
3.2719e+00,-0.00332,0.00068
3.2796e+00,-0.0034,-0.00716
3.2873e+00,-0.00332,0.00116
3.2949e+00,-0.00276,-0.00652
3.3026e+00,-0.00268,0.00108
3.3103e+00,-0.00276,-0.00604
3.3180e+00,-0.00252,0.00164
3.3257e+00,-0.00244,-0.00668
3.3333e+00,-0.0022,0.0002
3.3410e+00,-0.0022,-0.00564
3.3487e+00,-0.0026,0.00268
3.3564e+00,-0.00276,-0.00788
3.3641e+00,-0.00276,0.00156
3.3717e+00,-0.00252,-0.0066
3.3794e+00,-0.0026,0.00036
3.3871e+00,-0.00284,-0.00588
3.3948e+00,-0.00292,0.00268
3.4025e+00,-0.00268,-0.00804
3.4101e+00,-0.00204,0.00268
3.4178e+00,-0.00236,-0.0074
3.4255e+00,-0.00244,0.00196
3.4332e+00,-0.00236,-0.007
3.4409e+00,-0.00228,0.0018
3.4485e+00,-0.0022,-0.00636
3.4562e+00,-0.00236,0.00164
3.4639e+00,-0.0026,-0.00668
3.4716e+00,-0.00308,0.00268
3.4793e+00,-0.00284,-0.0082
3.4869e+00,-0.00252,4e-05
3.4946e+00,-0.00316,-0.00556
3.5023e+00,-0.00284,0.0026
3.5100e+00,-0.00252,-0.00756
3.5177e+00,-0.0026,-0.00156
3.5253e+00,-0.00268,-0.00396
3.5330e+00,-0.00292,0.00084
3.5407e+00,-0.00244,-0.00724
3.5484e+00,-0.00284,0.00092
3.5561e+00,-0.00244,-0.00612
3.5637e+00,-0.003,0.00268
3.5714e+00,-0.00236,-0.00796
3.5791e+00,-0.00276,0.00204
3.5868e+00,-0.00252,-0.00772
3.5945e+00,-0.00324,0.00196
3.6022e+00,-0.00276,-0.0086
3.6098e+00,-0.00244,0.0022
3.6175e+00,-0.003,-0.00708
3.6252e+00,-0.00276,0.00268
3.6329e+00,-0.0026,-0.00844
3.6406e+00,-0.00236,0.0002
3.6482e+00,-0.00268,-0.0054
3.6559e+00,-0.00284,0.0002
3.6636e+00,-0.00276,-0.00596
3.6713e+00,-0.00244,0.00116
3.6790e+00,-0.00228,-0.0062
3.6866e+00,-0.0026,0.00268
3.6943e+00,-0.00252,-0.00724
3.7020e+00,-0.0022,0.00268
3.7097e+00,-0.00236,-0.00828
3.7174e+00,-0.00252,-0.00084
3.7250e+00,-0.00228,-0.00356
3.7327e+00,-0.00172,0.00268
3.7404e+00,-0.00228,-0.00724
3.7481e+00,-0.0022,0.001
3.7558e+00,-0.00228,-0.00564
3.7634e+00,-0.00316,0.00044
3.7711e+00,-0.00284,-0.00572
3.7788e+00,-0.00284,0.0006
3.7865e+00,-0.00292,-0.00604
3.7942e+00,-0.00276,0.00212
3.8018e+00,-0.00244,-0.00756
3.8095e+00,-0.00244,0.00268
3.8172e+00,-0.00236,-0.00724
3.8249e+00,-0.00252,0.00188
3.8326e+00,-0.00284,-0.00684
3.8402e+00,-0.00292,0.00172
3.8479e+00,-0.0026,-0.00748
3.8556e+00,-0.00316,0.00132
3.8633e+00,-0.00284,-0.00708
3.8710e+00,-0.00276,0.00268
3.8786e+00,-0.0026,-0.0086
3.8863e+00,-0.0026,0.00268
3.8940e+00,-0.0026,-0.00804
3.9017e+00,-0.00284,0.00252
3.9094e+00,-0.00276,-0.0086
3.9171e+00,-0.00244,-0.00124
3.9247e+00,-0.00292,-0.00436
3.9324e+00,-0.00276,0.00052
3.9401e+00,-0.00284,-0.00612
3.9478e+00,-0.00292,0.00108
3.9555e+00,-0.00276,-0.00716
3.9631e+00,-0.00268,0.00052
3.9708e+00,-0.00268,-0.00508
3.9785e+00,-0.00276,0.00164
3.9862e+00,-0.00252,-0.00676
3.9939e+00,-0.00236,0.00196
4.0015e+00,-0.00204,-0.00684
4.0092e+00,-0.00204,0.0006
4.0169e+00,-0.0018,-0.00428
4.0246e+00,-0.00212,0.00028
4.0323e+00,-0.00188,-0.00476
4.0399e+00,-0.00212,0.00268
4.0476e+00,-0.0022,-0.00852
4.0553e+00,-0.00244,0.00268
4.0630e+00,-0.00212,-0.00748
4.0707e+00,-0.00172,0.00052
4.0783e+00,-0.00244,-0.00564
4.0860e+00,-0.00244,0.00164
4.0937e+00,-0.00244,-0.00652
4.1014e+00,-0.00276,0.001
4.1091e+00,-0.00284,-0.00628
4.1167e+00,-0.00252,-0.00092
4.1244e+00,-0.0026,-0.00476
4.1321e+00,-0.00252,0.00092
4.1398e+00,-0.00244,-0.00708
4.1475e+00,-0.00236,0.00268
4.1551e+00,-0.0022,-0.00788
4.1628e+00,-0.00268,0.00124
4.1705e+00,-0.00204,-0.0058
4.1782e+00,-0.00164,0.00228
4.1859e+00,-0.00172,-0.00588
4.1935e+00,-0.00212,0.00172
4.2012e+00,-0.00196,-0.00556
4.2089e+00,-0.0018,0.00204
4.2166e+00,-0.00132,-0.00492
4.2243e+00,-0.00172,0.00268
4.2320e+00,-0.00156,-0.00772
4.2396e+00,-0.00164,0.00076
4.2473e+00,-0.00164,-0.00476
4.2550e+00,-0.00188,0.00108
4.2627e+00,-0.00196,-0.00524
4.2704e+00,-0.00196,0.00116
4.2780e+00,-0.00228,-0.00564
4.2857e+00,-0.00212,0.00124
4.2934e+00,-0.00212,-0.0058
4.3011e+00,-0.0022,-0.00044
4.3088e+00,-0.00244,-0.00372
4.3164e+00,-0.00276,0.00188
4.3241e+00,-0.00244,-0.00708
4.3318e+00,-0.00268,0.00164
4.3395e+00,-0.00252,-0.00684
4.3472e+00,-0.00276,0.00268
4.3548e+00,-0.00252,-0.00764
4.3625e+00,-0.00316,0.00172
4.3702e+00,-0.00244,-0.00724
4.3779e+00,-0.00268,-0.00028
4.3856e+00,-0.0026,-0.00524
4.3932e+00,-0.00252,0.00116
4.4009e+00,-0.00284,-0.00708
4.4086e+00,-0.00292,0.00172
4.4163e+00,-0.00284,-0.0074
4.4240e+00,-0.00252,0.00092
4.4316e+00,-0.0026,-0.00612
4.4393e+00,-0.00196,0.00148
4.4470e+00,-0.00268,-0.00636
4.4547e+00,-0.00268,0.00156
4.4624e+00,-0.0022,-0.00596
4.4700e+00,-0.0018,0.00252
4.4777e+00,-0.00204,-0.00684
4.4854e+00,-0.00212,0.00164
4.4931e+00,-0.00236,-0.00588
4.5008e+00,-0.00204,0.00068
4.5084e+00,-0.00212,-0.00476
4.5161e+00,-0.00252,0.00132
4.5238e+00,-0.00212,-0.00556
4.5315e+00,-0.00212,0.00172
4.5392e+00,-0.00228,-0.0062
4.5469e+00,-0.00244,0.00156
4.5545e+00,-0.00244,-0.00676
4.5622e+00,-0.0026,0.00116
4.5699e+00,-0.00252,-0.00588
4.5776e+00,-0.00252,0.00268
4.5853e+00,-0.00228,-0.00908
4.5929e+00,-0.00268,0.00212
4.6006e+00,-0.00252,-0.0066
4.6083e+00,-0.0026,0.00076
4.6160e+00,-0.00324,-0.00628
4.6237e+00,-0.00236,0.00204
4.6313e+00,-0.00324,-0.00764
4.6390e+00,-0.00268,0.00228
4.6467e+00,-0.003,-0.00852
4.6544e+00,-0.00284,0.00116
4.6621e+00,-0.00316,-0.00692
4.6697e+00,-0.00276,0.00212
4.6774e+00,-0.00308,-0.00844
4.6851e+00,-0.003,-0.00036
4.6928e+00,-0.0026,-0.00596
4.7005e+00,-0.00316,0.00268
4.7081e+00,-0.00316,-0.00956
4.7158e+00,-0.00308,-0.00036
4.7235e+00,-0.003,-0.00524
4.7312e+00,-0.00324,0.0002
4.7389e+00,-0.00236,-0.00572
4.7465e+00,-0.00244,0.0026
4.7542e+00,-0.00228,-0.00772
4.7619e+00,-0.00308,0.00236
4.7696e+00,-0.00252,-0.007
4.7773e+00,-0.00244,-0.00068
4.7849e+00,-0.00268,-0.00524
4.7926e+00,-0.0026,-0.0002
4.8003e+00,-0.00252,-0.00532
4.8080e+00,-0.00276,0.0014
4.8157e+00,-0.0022,-0.00564
4.8233e+00,-0.00212,0.00108
4.8310e+00,-0.0022,-0.00508
4.8387e+00,-0.00204,0.00108
4.8464e+00,-0.00244,-0.00588
4.8541e+00,-0.00188,0.00268
4.8618e+00,-0.0026,-0.00812
4.8694e+00,-0.00268,0.00092
4.8771e+00,-0.00268,-0.00644
4.8848e+00,-0.0026,-0.00132
4.8925e+00,-0.0026,-0.00356
4.9002e+00,-0.0022,0.00092
4.9078e+00,-0.0022,-0.00556
4.9155e+00,-0.0022,0.00188
4.9232e+00,-0.0022,-0.00652
4.9309e+00,-0.00236,0.00156
4.9386e+00,-0.00188,-0.00524
4.9462e+00,-0.0022,0.00268
4.9539e+00,-0.00196,-0.00732
4.9616e+00,-0.00196,0.00268
4.9693e+00,-0.0022,-0.0074
4.9770e+00,-0.00172,0.00052
4.9846e+00,-0.0018,-0.00468
4.9923e+00,-0.0026,-0.0002
5.0000e+00,-0.0026,-0.00436
5.0077e+00,-0.00196,0.001
5.0154e+00,-0.00284,-0.00588
5.0230e+00,-0.00228,0.00268
5.0307e+00,-0.0022,-0.0078
5.0384e+00,-0.00244,0.00092
5.0461e+00,-0.0022,-0.00532
5.0538e+00,-0.00228,0.00268
5.0614e+00,-0.00212,-0.00604
5.0691e+00,-0.00172,0.00212
5.0768e+00,-0.00204,-0.0062
5.0845e+00,-0.00196,0.00268
5.0922e+00,-0.0022,-0.00868
5.0998e+00,-0.00172,0.00148
5.1075e+00,-0.00196,-0.0062
5.1152e+00,-0.00204,0.00268
5.1229e+00,-0.0026,-0.00724
5.1306e+00,-0.00244,0.00196
5.1382e+00,-0.00228,-0.00676
5.1459e+00,-0.00204,0.00076
5.1536e+00,-0.00196,-0.00532
5.1613e+00,-0.00236,0.00156
5.1690e+00,-0.00228,-0.00508
5.1767e+00,-0.0018,0.00252
5.1843e+00,-0.0018,-0.00748
5.1920e+00,-0.00188,0.00132
5.1997e+00,-0.00204,-0.00524
5.2074e+00,-0.00236,0.0026
5.2151e+00,-0.00196,-0.00676
5.2227e+00,-0.0022,0.00172
5.2304e+00,-0.00204,-0.00644
5.2381e+00,-0.0022,0.00068
5.2458e+00,-0.00236,-0.00572
5.2535e+00,-0.00236,0.00188
5.2611e+00,-0.00244,-0.00684
5.2688e+00,-0.00228,0.00268
5.2765e+00,-0.00228,-0.00804
5.2842e+00,-0.00236,-0.00132
5.2919e+00,-0.00228,-0.00364
5.2995e+00,-0.0026,0.00148
5.3072e+00,-0.0022,-0.00644
5.3149e+00,-0.00284,0.00196
5.3226e+00,-0.003,-0.00748
5.3303e+00,-0.00276,0.00244
5.3379e+00,-0.00332,-0.00828
5.3456e+00,-0.00388,0.00052
5.3533e+00,-0.00316,-0.00724
5.3610e+00,-0.00348,0.0018
5.3687e+00,-0.00372,-0.00916
5.3763e+00,-0.00324,0.001
5.3840e+00,-0.00316,-0.00732
5.3917e+00,-0.00292,0.00196
5.3994e+00,-0.0026,-0.00716
5.4071e+00,-0.00268,0.00188
5.4147e+00,-0.00308,-0.00732
5.4224e+00,-0.00268,0.001
5.4301e+00,-0.00284,-0.00644
5.4378e+00,-0.00292,0.00052
5.4455e+00,-0.00292,-0.0062
5.4531e+00,-0.003,0.00212
5.4608e+00,-0.003,-0.00748
5.4685e+00,-0.00324,0.00116
5.4762e+00,-0.00276,-0.0058
5.4839e+00,-0.00268,0.00116
5.4916e+00,-0.00276,-0.00748
5.4992e+00,-0.00252,0.00268
5.5069e+00,-0.00196,-0.00812
5.5146e+00,-0.00244,0.00268
5.5223e+00,-0.00292,-0.0078
5.5300e+00,-0.00284,-0.00076
5.5376e+00,-0.003,-0.00524
5.5453e+00,-0.00268,0.00268
5.5530e+00,-0.0034,-0.00804
5.5607e+00,-0.00308,-0.00116
5.5684e+00,-0.00316,-0.00556
5.5760e+00,-0.003,0.00036
5.5837e+00,-0.00308,-0.00668
5.5914e+00,-0.00292,0.00268
5.5991e+00,-0.00316,-0.0094
5.6068e+00,-0.00284,0.00196
5.6144e+00,-0.0026,-0.00844
5.6221e+00,-0.00292,0.00244
5.6298e+00,-0.0026,-0.0086
5.6375e+00,-0.0026,-4e-05
5.6452e+00,-0.0022,-0.005
5.6528e+00,-0.00244,0.00204
5.6605e+00,-0.00252,-0.00596
5.6682e+00,-0.00236,0.00268
5.6759e+00,-0.00268,-0.00812
5.6836e+00,-0.00188,0.00148
5.6912e+00,-0.00228,-0.00524
5.6989e+00,-0.00244,0.00164
5.7066e+00,-0.00212,-0.00628
5.7143e+00,-0.00228,0.00252
5.7220e+00,-0.00252,-0.00812
5.7296e+00,-0.0018,0.00196
5.7373e+00,-0.0026,-0.00676
5.7450e+00,-0.00204,0.00188
5.7527e+00,-0.00212,-0.00604
5.7604e+00,-0.00204,0.00212
5.7680e+00,-0.00196,-0.0062
5.7757e+00,-0.00236,0.00268
5.7834e+00,-0.00212,-0.007
5.7911e+00,-0.00164,0.00268
5.7988e+00,-0.00188,-0.00628
5.8065e+00,-0.00188,0.00252
5.8141e+00,-0.00172,-0.00636
5.8218e+00,-0.00236,0.00268
5.8295e+00,-0.00212,-0.0078
5.8372e+00,-0.0022,0.00268
5.8449e+00,-0.00156,-0.0062
5.8525e+00,-0.00164,0.00196
5.8602e+00,-0.00116,-0.00556
5.8679e+00,-0.00196,0.0006
5.8756e+00,-0.00116,-0.00308
5.8833e+00,-0.00124,0.00172
5.8909e+00,-0.0014,-0.00452
5.8986e+00,-0.0014,0.00268
5.9063e+00,-0.00124,-0.0066
5.9140e+00,-0.0014,0.00164
5.9217e+00,-0.00148,-0.00556
5.9293e+00,-0.00164,0.00268
5.9370e+00,-0.0014,-0.00636
5.9447e+00,-0.00132,0.0018
5.9524e+00,-0.0014,-0.0054
5.9601e+00,-0.00124,0.00252
5.9677e+00,-0.00156,-0.00548
5.9754e+00,-0.00116,0.00092
5.9831e+00,-0.0018,-0.00468
5.9908e+00,-0.00156,0.00268
5.9985e+00,-0.00164,-0.0074
6.0061e+00,-0.00156,0.00068
6.0138e+00,-0.00156,-0.00436
6.0215e+00,-0.00228,0.00268
6.0292e+00,-0.0018,-0.00924
6.0369e+00,-0.00164,0.0014
6.0445e+00,-0.00164,-0.00428
6.0522e+00,-0.00148,0.00172
6.0599e+00,-0.001,-0.00508
6.0676e+00,-0.00156,-0.0002
6.0753e+00,-0.00116,-0.00252
6.0829e+00,-0.00116,0.00268
6.0906e+00,-0.00108,-0.00756
6.0983e+00,-0.00148,0.00212
6.1060e+00,-0.00092,-0.00524
6.1137e+00,-0.001,0.00148
6.1214e+00,-0.00132,-0.00428
6.1290e+00,-0.00156,0.00268
6.1367e+00,-0.0014,-0.00644
6.1444e+00,-0.00132,0.00172
6.1521e+00,-0.00156,-0.00452
6.1598e+00,-0.00124,0.00252
6.1674e+00,-0.00124,-0.00564
6.1751e+00,-0.00148,0.00124
6.1828e+00,-0.0014,-0.00452
6.1905e+00,-0.00148,0.00148
6.1982e+00,-0.00188,-0.0054
6.2058e+00,-0.0018,0.00124
6.2135e+00,-0.0014,-0.00452
6.2212e+00,-0.00188,0.00268
6.2289e+00,-0.00204,-0.00644
6.2366e+00,-0.0018,0.00252
6.2442e+00,-0.0022,-0.00748
6.2519e+00,-0.00252,0.00076
6.2596e+00,-0.00252,-0.00636
6.2673e+00,-0.00244,-0.00036
6.2750e+00,-0.00324,-0.00548
6.2826e+00,-0.00268,0.00268
6.2903e+00,-0.00276,-0.00932
6.2980e+00,-0.00292,0.0018
6.3057e+00,-0.003,-0.00724
6.3134e+00,-0.00284,0.0006
6.3210e+00,-0.00292,-0.00604
6.3287e+00,-0.00276,0.0018
6.3364e+00,-0.00332,-0.00788
6.3441e+00,-0.00204,0.0014
6.3518e+00,-0.0022,-0.00644
6.3594e+00,-0.00268,0.0006
6.3671e+00,-0.00292,-0.00628
6.3748e+00,-0.00292,0.0026
6.3825e+00,-0.00284,-0.00956
6.3902e+00,-0.003,-4e-05
6.3978e+00,-0.00252,-0.00572
6.4055e+00,-0.00324,0.0006
6.4132e+00,-0.00316,-0.00588
6.4209e+00,-0.0026,0.00244
6.4286e+00,-0.00236,-0.00764
6.4363e+00,-0.00276,0.00268
6.4439e+00,-0.00236,-0.0082
6.4516e+00,-0.00268,-0.00132
6.4593e+00,-0.00236,-0.00348
6.4670e+00,-0.00228,0.00068
6.4747e+00,-0.0022,-0.00532
6.4823e+00,-0.00276,0.0006
6.4900e+00,-0.00212,-0.00572
6.4977e+00,-0.00228,0.00236
6.5054e+00,-0.00236,-0.00628
6.5131e+00,-0.0022,0.00204
6.5207e+00,-0.00228,-0.0058
6.5284e+00,-0.00252,0.00044
6.5361e+00,-0.00292,-0.00596
6.5438e+00,-0.00276,0.00172
6.5515e+00,-0.00268,-0.00692
6.5591e+00,-0.0022,0.00132
6.5668e+00,-0.00228,-0.00644
6.5745e+00,-0.00252,0.00268
6.5822e+00,-0.00228,-0.00772
6.5899e+00,-0.00228,0.00188
6.5975e+00,-0.00196,-0.00732
6.6052e+00,-0.00236,0.00124
6.6129e+00,-0.00244,-0.00572
6.6206e+00,-0.00228,0.0002
6.6283e+00,-0.00252,-0.00548
6.6359e+00,-0.00276,0.00268
6.6436e+00,-0.0026,-0.0078
6.6513e+00,-0.00244,-0.0002
6.6590e+00,-0.00228,-0.00428
6.6667e+00,-0.00308,0.001
6.6743e+00,-0.00228,-0.00548
6.6820e+00,-0.003,-4e-05
6.6897e+00,-0.00268,-0.00516
6.6974e+00,-0.00268,0.00172
6.7051e+00,-0.003,-0.00668
6.7127e+00,-0.00268,0.00124
6.7204e+00,-0.003,-0.00676
6.7281e+00,-0.00308,0.00012
6.7358e+00,-0.00268,-0.0054
6.7435e+00,-0.0022,-4e-05
6.7512e+00,-0.00292,-0.00604
6.7588e+00,-0.003,0.0026
6.7665e+00,-0.00252,-0.0082
6.7742e+00,-0.00284,0.00268
6.7819e+00,-0.00268,-0.00844
6.7896e+00,-0.00268,0.00028
6.7972e+00,-0.00236,-0.00572
6.8049e+00,-0.00268,0.00028
6.8126e+00,-0.003,-0.00532
6.8203e+00,-0.00316,0.00268
6.8280e+00,-0.00292,-0.0098
6.8356e+00,-0.00292,-4e-05
6.8433e+00,-0.00316,-0.00644
6.8510e+00,-0.00308,0.00084
6.8587e+00,-0.00348,-0.00748
6.8664e+00,-0.00324,0.00252
6.8740e+00,-0.003,-0.00892
6.8817e+00,-0.00332,0.0002
6.8894e+00,-0.0034,-0.00692
6.8971e+00,-0.00316,0.00148
6.9048e+00,-0.00308,-0.00708
6.9124e+00,-0.00332,0.00052
6.9201e+00,-0.003,-0.0066
6.9278e+00,-0.003,0.00188
6.9355e+00,-0.00332,-0.00764
6.9432e+00,-0.00292,0.00188
6.9508e+00,-0.00268,-0.00716
6.9585e+00,-0.0022,0.00052
6.9662e+00,-0.00292,-0.00548
6.9739e+00,-0.00308,0.00164
6.9816e+00,-0.00252,-0.00708
6.9892e+00,-0.00228,0.00124
6.9969e+00,-0.00244,-0.00692
7.0046e+00,-0.00276,0.00268
7.0123e+00,-0.00228,-0.00796
7.0200e+00,-0.00236,0.00172
7.0276e+00,-0.0022,-0.00644
7.0353e+00,-0.00236,-0.00036
7.0430e+00,-0.0026,-0.00452
7.0507e+00,-0.0022,0.00244
7.0584e+00,-0.0022,-0.0066
7.0661e+00,-0.00212,0.00252
7.0737e+00,-0.0018,-0.00716
7.0814e+00,-0.00284,0.00052
7.0891e+00,-0.00228,-0.0058
7.0968e+00,-0.00292,0.00228
7.1045e+00,-0.00236,-0.0082
7.1121e+00,-0.00308,0.0006
7.1198e+00,-0.00268,-0.00604
7.1275e+00,-0.00284,0.0022
7.1352e+00,-0.00244,-0.00676
7.1429e+00,-0.00252,0.00172
7.1505e+00,-0.00292,-0.0062
7.1582e+00,-0.00252,0.00212
7.1659e+00,-0.00244,-0.00668
7.1736e+00,-0.00252,0.001
7.1813e+00,-0.0022,-0.00604
7.1889e+00,-0.00228,0.0018
7.1966e+00,-0.00228,-0.00628
7.2043e+00,-0.00228,0.00228
7.2120e+00,-0.00196,-0.00596
7.2197e+00,-0.0018,0.00268
7.2273e+00,-0.00212,-0.00812
7.2350e+00,-0.00188,0.00044
7.2427e+00,-0.00252,-0.00524
7.2504e+00,-0.00204,0.00188
7.2581e+00,-0.0026,-0.0074
7.2657e+00,-0.00252,0.00108
7.2734e+00,-0.00252,-0.00636
7.2811e+00,-0.00332,0.00148
7.2888e+00,-0.003,-0.0066
7.2965e+00,-0.00324,0.00084
7.3041e+00,-0.00316,-0.007
7.3118e+00,-0.00308,0.00052
7.3195e+00,-0.00292,-0.00596
7.3272e+00,-0.00244,0.0006
7.3349e+00,-0.00244,-0.00492
7.3425e+00,-0.00252,-4e-05
7.3502e+00,-0.00196,-0.00484
7.3579e+00,-0.00228,0.00268
7.3656e+00,-0.00228,-0.00732
7.3733e+00,-0.00196,0.00164
7.3810e+00,-0.00188,-0.00628
7.3886e+00,-0.00196,0.00252
7.3963e+00,-0.00212,-0.00676
7.4040e+00,-0.00236,0.00148
7.4117e+00,-0.00228,-0.00668
7.4194e+00,-0.00204,0.00084
7.4270e+00,-0.0018,-0.0054
7.4347e+00,-0.00244,0.00044
7.4424e+00,-0.0018,-0.00516
7.4501e+00,-0.00244,0.00132
7.4578e+00,-0.00196,-0.00532
7.4654e+00,-0.00236,0.00268
7.4731e+00,-0.00196,-0.00748
7.4808e+00,-0.00244,0.00108
7.4885e+00,-0.00244,-0.00596
7.4962e+00,-0.00236,-0.00028
7.5038e+00,-0.0026,-0.00484
7.5115e+00,-0.00228,0.00092
7.5192e+00,-0.00276,-0.00612
7.5269e+00,-0.00292,0.001
7.5346e+00,-0.00252,-0.00588
7.5422e+00,-0.00284,0.00148
7.5499e+00,-0.00244,-0.00684
7.5576e+00,-0.0026,0.00268
7.5653e+00,-0.00292,-0.0106
7.5730e+00,-0.00292,0.00244
7.5806e+00,-0.00316,-0.00892
7.5883e+00,-0.00388,0.00188
7.5960e+00,-0.00332,-0.00828
7.6037e+00,-0.00332,-0.00076
7.6114e+00,-0.00364,-0.00604
7.6190e+00,-0.00324,0.00068
7.6267e+00,-0.00284,-0.00572
7.6344e+00,-0.00284,0.0026
7.6421e+00,-0.0026,-0.00788
7.6498e+00,-0.00284,0.00116
7.6575e+00,-0.00236,-0.00604
7.6651e+00,-0.0018,0.00268
7.6728e+00,-0.00196,-0.00828
7.6805e+00,-0.0022,0.00124
7.6882e+00,-0.0022,-0.00572
7.6959e+00,-0.00196,0.00188
7.7035e+00,-0.00236,-0.00628
7.7112e+00,-0.0022,0.00132
7.7189e+00,-0.0022,-0.0062
7.7266e+00,-0.00188,0.00268
7.7343e+00,-0.0018,-0.00652
7.7419e+00,-0.00148,0.00036
7.7496e+00,-0.00164,-0.00436
7.7573e+00,-0.00236,0.00052
7.7650e+00,-0.00212,-0.00452
7.7727e+00,-0.00212,0.00108
7.7803e+00,-0.00252,-0.00596
7.7880e+00,-0.00244,0.00268
7.7957e+00,-0.00228,-0.00788
7.8034e+00,-0.0026,0.00236
7.8111e+00,-0.00228,-0.00636
7.8187e+00,-0.00228,-0.00116
7.8264e+00,-0.00228,-0.0034
7.8341e+00,-0.00204,0.00268
7.8418e+00,-0.00236,-0.00716
7.8495e+00,-0.00252,0.00084
7.8571e+00,-0.00268,-0.00628
7.8648e+00,-0.00276,0.00148
7.8725e+00,-0.00252,-0.00612
7.8802e+00,-0.00252,0.00012
7.8879e+00,-0.0026,-0.00556
7.8955e+00,-0.00316,0.00244
7.9032e+00,-0.003,-0.00844
7.9109e+00,-0.003,0.00244
7.9186e+00,-0.00292,-0.00876
7.9263e+00,-0.003,0.00084
7.9339e+00,-0.00268,-0.00732
7.9416e+00,-0.00244,0.00148
7.9493e+00,-0.0026,-0.00668
7.9570e+00,-0.00308,0.00068
7.9647e+00,-0.00268,-0.00692
7.9724e+00,-0.00332,0.00092
7.9800e+00,-0.003,-0.00588
7.9877e+00,-0.00284,0.00108
7.9954e+00,-0.00284,-0.00652
8.0031e+00,-0.00284,0.00156
8.0108e+00,-0.00228,-0.00644
8.0184e+00,-0.00204,-4e-05
8.0261e+00,-0.00236,-0.00436
8.0338e+00,-0.00244,0.00036
8.0415e+00,-0.00188,-0.00508
8.0492e+00,-0.00204,0.00268
8.0568e+00,-0.00244,-0.00772
8.0645e+00,-0.0022,0.00204
8.0722e+00,-0.00156,-0.00556
8.0799e+00,-0.00188,0.00116
8.0876e+00,-0.00212,-0.00492
8.0952e+00,-0.00188,0.0026
8.1029e+00,-0.00188,-0.00716
8.1106e+00,-0.0022,0.00268
8.1183e+00,-0.00196,-0.00748
8.1260e+00,-0.00196,0.0006
8.1336e+00,-0.00212,-0.00492
8.1413e+00,-0.00172,0.0026
8.1490e+00,-0.00212,-0.00612
8.1567e+00,-0.0022,0.00268
8.1644e+00,-0.00172,-0.00604
8.1720e+00,-0.00196,0.00076
8.1797e+00,-0.0022,-0.00428
8.1874e+00,-0.00212,0.00132
8.1951e+00,-0.00244,-0.0058
8.2028e+00,-0.00188,0.00116
8.2104e+00,-0.00244,-0.00548
8.2181e+00,-0.0022,0.00268
8.2258e+00,-0.00244,-0.00764
8.2335e+00,-0.0022,0.00268
8.2412e+00,-0.00196,-0.00796
8.2488e+00,-0.00196,0.00156
8.2565e+00,-0.00236,-0.00588
8.2642e+00,-0.00244,0.00116
8.2719e+00,-0.0022,-0.0054
8.2796e+00,-0.00196,0.00196
8.2873e+00,-0.00188,-0.00588
8.2949e+00,-0.0018,0.00084
8.3026e+00,-0.00156,-0.00452
8.3103e+00,-0.00172,0.00268
8.3180e+00,-0.00172,-0.00588
8.3257e+00,-0.00164,0.00268
8.3333e+00,-0.00116,-0.00588
8.3410e+00,-0.0018,0.00076
8.3487e+00,-0.00196,-0.0038
8.3564e+00,-0.00148,0.00268
8.3641e+00,-0.00156,-0.0062
8.3717e+00,-0.00188,0.00268
8.3794e+00,-0.00204,-0.00796
8.3871e+00,-0.00172,0.00268
8.3948e+00,-0.0018,-0.00564
8.4025e+00,-0.0014,0.00108
8.4101e+00,-0.00212,-0.00436
8.4178e+00,-0.00156,0.00124
8.4255e+00,-0.00188,-0.005
8.4332e+00,-0.00156,0.00268
8.4409e+00,-0.0014,-0.00652
8.4485e+00,-0.00172,0.00172
8.4562e+00,-0.00172,-0.00556
8.4639e+00,-0.00164,0.00172
8.4716e+00,-0.00196,-0.00492
8.4793e+00,-0.00188,0.00268
8.4869e+00,-0.00156,-0.00628
8.4946e+00,-0.00156,0.00244
8.5023e+00,-0.0018,-0.00612
8.5100e+00,-0.0018,0.00268
8.5177e+00,-0.00204,-0.0078
8.5253e+00,-0.00228,0.00268
8.5330e+00,-0.00244,-0.00772
8.5407e+00,-0.00244,0.00148
8.5484e+00,-0.0022,-0.00548
8.5561e+00,-0.00188,0.00148
8.5637e+00,-0.00204,-0.00548
8.5714e+00,-0.00228,0.00132
8.5791e+00,-0.00148,-0.00524
8.5868e+00,-0.00172,0.00244
8.5945e+00,-0.00212,-0.0058
8.6022e+00,-0.00204,0.00132
8.6098e+00,-0.0014,-0.00476
8.6175e+00,-0.00196,0.00252
8.6252e+00,-0.00212,-0.00628
8.6329e+00,-0.00148,0.00268
8.6406e+00,-0.00156,-0.0074
8.6482e+00,-0.00196,0.00244
8.6559e+00,-0.00156,-0.00628
8.6636e+00,-0.00172,0.00172
8.6713e+00,-0.0014,-0.00532
8.6790e+00,-0.0018,0.00268
8.6866e+00,-0.0014,-0.00628
8.6943e+00,-0.0014,0.00268
8.7020e+00,-0.00204,-0.00612
8.7097e+00,-0.0014,0.00164
8.7174e+00,-0.0018,-0.005
8.7250e+00,-0.00116,0.00268
8.7327e+00,-0.00132,-0.00684
8.7404e+00,-0.00148,0.001
8.7481e+00,-0.0014,-0.0042
8.7558e+00,-0.00172,0.00188
8.7634e+00,-0.0018,-0.00548
8.7711e+00,-0.00212,0.00268
8.7788e+00,-0.00204,-0.00684
8.7865e+00,-0.00204,-0.00052
8.7942e+00,-0.0018,-0.00292
8.8018e+00,-0.0018,0.00204
8.8095e+00,-0.00156,-0.00604
8.8172e+00,-0.00236,0.00212
8.8249e+00,-0.00196,-0.00572
8.8326e+00,-0.00204,0.00116
8.8402e+00,-0.00196,-0.00548
8.8479e+00,-0.00204,0.00268
8.8556e+00,-0.0018,-0.0078
8.8633e+00,-0.00196,0.00228
8.8710e+00,-0.00188,-0.00676
8.8786e+00,-0.00228,0.00268
8.8863e+00,-0.0022,-0.00724
8.8940e+00,-0.00212,-0.00012
8.9017e+00,-0.0026,-0.00484
8.9094e+00,-0.00268,0.00036
8.9171e+00,-0.00228,-0.0058
8.9247e+00,-0.00212,0.00268
8.9324e+00,-0.00164,-0.00732
8.9401e+00,-0.00228,0.00036
8.9478e+00,-0.00228,-0.00516
8.9555e+00,-0.0026,0.00068
8.9631e+00,-0.0022,-0.00436
8.9708e+00,-0.00244,0.00268
8.9785e+00,-0.0022,-0.00788
8.9862e+00,-0.00236,0.00052
8.9939e+00,-0.003,-0.00524
9.0015e+00,-0.0026,0.00212
9.0092e+00,-0.00228,-0.00652
9.0169e+00,-0.00252,0.00148
9.0246e+00,-0.003,-0.0066
9.0323e+00,-0.00276,0.00076
9.0399e+00,-0.00276,-0.00652
9.0476e+00,-0.00276,0.0014
9.0553e+00,-0.0026,-0.00732
9.0630e+00,-0.003,0.00052
9.0707e+00,-0.0034,-0.00716
9.0783e+00,-0.00292,0.00036
9.0860e+00,-0.00308,-0.0066
9.0937e+00,-0.00276,0.00268
9.1014e+00,-0.00276,-0.00844
9.1091e+00,-0.00308,0.00124
9.1167e+00,-0.00292,-0.00612
9.1244e+00,-0.0022,0.00044
9.1321e+00,-0.00228,-0.00548
9.1398e+00,-0.00252,0.00268
9.1475e+00,-0.00244,-0.00852
9.1551e+00,-0.00244,0.00164
9.1628e+00,-0.00276,-0.00732
9.1705e+00,-0.00252,0.00268
9.1782e+00,-0.00252,-0.00908
9.1859e+00,-0.00268,0.00012
9.1935e+00,-0.00268,-0.0054
9.2012e+00,-0.00236,0.00044
9.2089e+00,-0.00212,-0.00508
9.2166e+00,-0.00268,0.00132
9.2243e+00,-0.0026,-0.00708
9.2320e+00,-0.00308,0.001
9.2396e+00,-0.00284,-0.00684
9.2473e+00,-0.00308,0.00244
9.2550e+00,-0.00228,-0.00772
9.2627e+00,-0.00252,0.001
9.2704e+00,-0.00228,-0.00636
9.2780e+00,-0.00236,0.00156
9.2857e+00,-0.00252,-0.00636
9.2934e+00,-0.00276,0.00268
9.3011e+00,-0.0026,-0.00772
9.3088e+00,-0.00244,0.00268
9.3164e+00,-0.0026,-0.00772
9.3241e+00,-0.00236,0.00108
9.3318e+00,-0.00244,-0.00556
9.3395e+00,-0.0026,0.0006
9.3472e+00,-0.00252,-0.0046
9.3548e+00,-0.00244,0.00268
9.3625e+00,-0.00244,-0.007
9.3702e+00,-0.00244,0.00156
9.3779e+00,-0.0022,-0.00636
9.3856e+00,-0.00244,-0.00052
9.3932e+00,-0.00244,-0.00428
9.4009e+00,-0.00252,0.00188
9.4086e+00,-0.0026,-0.00604
9.4163e+00,-0.00244,0.00148
9.4240e+00,-0.0022,-0.0066
9.4316e+00,-0.0022,0.00028
9.4393e+00,-0.00268,-0.005
9.4470e+00,-0.00244,0.00252
9.4547e+00,-0.00268,-0.0082
9.4624e+00,-0.00228,0.00236
9.4700e+00,-0.0026,-0.00684
9.4777e+00,-0.00252,0.00164
9.4854e+00,-0.0022,-0.00572
9.4931e+00,-0.00228,0.00188
9.5008e+00,-0.00244,-0.00596
9.5084e+00,-0.0018,0.0006
9.5161e+00,-0.00252,-0.00516
9.5238e+00,-0.00204,4e-05
9.5315e+00,-0.0026,-0.005
9.5392e+00,-0.00228,0.00172
9.5469e+00,-0.00244,-0.00724
9.5545e+00,-0.00252,0.001
9.5622e+00,-0.0022,-0.00604
9.5699e+00,-0.00268,0.00028
9.5776e+00,-0.00252,-0.00596
9.5853e+00,-0.00268,0.00204
9.5929e+00,-0.0026,-0.00748
9.6006e+00,-0.00252,0.00268
9.6083e+00,-0.00228,-0.0078
9.6160e+00,-0.00188,0.0014
9.6237e+00,-0.00212,-0.00604
9.6313e+00,-0.00228,0.00172
9.6390e+00,-0.00196,-0.00572
9.6467e+00,-0.00172,0.00108
9.6544e+00,-0.0014,-0.00484
9.6621e+00,-0.00132,0.00268
9.6697e+00,-0.0014,-0.00644
9.6774e+00,-0.00148,0.0014
9.6851e+00,-0.00148,-0.00452
9.6928e+00,-0.00204,0.00268
9.7005e+00,-0.00148,-0.0066
9.7081e+00,-0.00172,0.001
9.7158e+00,-0.00228,-0.00548
9.7235e+00,-0.00148,0.00172
9.7312e+00,-0.00164,-0.00564
9.7389e+00,-0.00164,0.00052
9.7465e+00,-0.00204,-0.00476
9.7542e+00,-0.00212,0.00244
9.7619e+00,-0.00196,-0.00628
9.7696e+00,-0.00228,0.00124
9.7773e+00,-0.00204,-0.00532
9.7849e+00,-0.0022,0.0014
9.7926e+00,-0.00188,-0.00508
9.8003e+00,-0.00204,0.00092
9.8080e+00,-0.00244,-0.0046
9.8157e+00,-0.0018,0.00164
9.8233e+00,-0.00212,-0.00508
9.8310e+00,-0.00148,0.00268
9.8387e+00,-0.00228,-0.00724
9.8464e+00,-0.0022,0.00124
9.8541e+00,-0.00244,-0.0058
9.8618e+00,-0.00212,0.00156
9.8694e+00,-0.00196,-0.00596
9.8771e+00,-0.0022,0.00028
9.8848e+00,-0.00228,-0.0046
9.8925e+00,-0.00188,0.00084
9.9002e+00,-0.00228,-0.00476
9.9078e+00,-0.00204,0.00268
9.9155e+00,-0.00212,-0.00644
9.9232e+00,-0.00196,0.00268
9.9309e+00,-0.00204,-0.00812
9.9386e+00,-0.00188,0.00084
9.9462e+00,-0.00228,-0.00548
9.9539e+00,-0.00228,0.00052
9.9616e+00,-0.0022,-0.00436
9.9693e+00,-0.00204,-0.00076
9.9770e+00,-0.00148,-0.00316
9.9846e+00,-0.00196,0.00196
9.9923e+00,-0.00188,-0.00644
1.0000e+01,-0.00244,0.00188
1.0008e+01,-0.00172,-0.00532
1.0015e+01,-0.00188,0.00068
1.0023e+01,-0.00212,-0.00612
1.0031e+01,-0.0018,0.00108
1.0038e+01,-0.00156,-0.00516
1.0046e+01,-0.0018,0.00268
1.0054e+01,-0.00172,-0.0074
1.0061e+01,-0.00204,0.00268
1.0069e+01,-0.00196,-0.00612
1.0077e+01,-0.00188,0.00244
1.0084e+01,-0.00188,-0.00636
1.0092e+01,-0.00196,0.00268
1.0100e+01,-0.00132,-0.00668
1.0108e+01,-0.00196,0.00204
1.0115e+01,-0.0022,-0.00532
1.0123e+01,-0.00196,0.00132

